onset	duration	trial_type	correct	window1_response	window1_RT	window2_response	window2_RT	stim_file	calculated_response	calculated_accuracy	calculated_RT
1.0934	7.632999999999999	G_P	2.0	n/a	n/a	2.0	4.07	Gram/Gram_run-02/stereo_1MP45U4.wav	2.0	1	1.939
8.7323	7.315	G_F	2.0	n/a	n/a	2.0	3.9419999999999997	Gram/Gram_run-02/stereo_1MF20U4.wav	2.0	1	3.2319999999999998
16.0543	6.2829999999999995	G_P	2.0	n/a	n/a	1.0	2.843	Gram/Gram_run-02/stereo_1MP34U2.wav	1.0	0	1.751
22.3421	6.195	G_C	1.0	n/a	n/a	1.0	1.516	Gram/Gram_run-02/CoM06d.wav	1.0	1	2.266
28.5465	6.221	G_G	1.0	n/a	n/a	n/a	n/a	Gram/Gram_run-02/stereo_1MF02G1.wav	n/a	0	n/a
34.769	5.801	G_F	2.0	n/a	n/a	2.0	1.474	Gram/Gram_run-02/stereo_2MF64U3.wav	2.0	1	2.224
40.5743	6.78	G_C	1.0	n/a	n/a	1.0	3.486	Gram/Gram_run-02/CoM07l.wav	1.0	1	4.236000000000001
47.3625	6.084	G_F	2.0	n/a	n/a	1.0	3.377	Gram/Gram_run-02/stereo_2MF56U2.wav	1.0	0	4.127
53.4512	7.5470000000000015	G_F	2.0	n/a	n/a	2.0	3.745	Gram/Gram_run-02/stereo_1MF21U4.wav	2.0	1	2.9939999999999998
61.0065	6.482	G_G	1.0	n/a	n/a	n/a	n/a	Gram/Gram_run-02/stereo_1MF24G4.wav	n/a	0	n/a
67.4946	6.7810000000000015	G_P	2.0	n/a	n/a	2.0	5.2170000000000005	Gram/Gram_run-02/stereo_2MP76U1.wav	2.0	1	2.955000000000001
74.2828	6.643	G_P	2.0	n/a	n/a	2.0	4.078	Gram/Gram_run-02/stereo_2MP80U2.wav	2.0	1	3.1220000000000003
80.9376	7.69	G_C	1.0	n/a	n/a	1.0	0.379	Gram/Gram_run-02/CoM06e.wav	1.0	1	1.129
88.639	6.352	G_F	2.0	n/a	n/a	2.0	3.4410000000000003	Gram/Gram_run-02/stereo_2MF63U3.wav	2.0	1	4.191000000000001
94.9947	5.801	G_G	1.0	n/a	n/a	n/a	n/a	Gram/Gram_run-02/stereo_1MF18G3.wav	1.0	1	3.849
100.8001	7.1129999999999995	G_P	2.0	1.0	0.18100000000000002	2.0	4.7330000000000005	Gram/Gram_run-02/stereo_1MP44U4.wav	2.0	1	2.3760000000000003
107.9218	6.78	G_C	1.0	n/a	n/a	1.0	4.614	Gram/Gram_run-02/CoM05b.wav	1.0	1	5.364
114.7101	6.7360000000000015	G_F	2.0	n/a	n/a	2.0	4.533	Gram/Gram_run-02/stereo_2MF58U2.wav	2.0	1	5.283
121.4494	6.0889999999999995	G_P	2.0	n/a	n/a	n/a	n/a	Gram/Gram_run-02/stereo_2MP87U3.wav	n/a	0	n/a
127.5529	7.6370000000000005	G_P	2.0	n/a	n/a	2.0	4.772	Gram/Gram_run-02/stereo_2MP73U1.wav	2.0	1	2.745
135.1929	7.305	G_C	1.0	n/a	n/a	n/a	n/a	Gram/Gram_run-02/CoM02l.wav	n/a	0	n/a
142.4994	5.983	G_G	1.0	n/a	n/a	2.0	4.149	Gram/Gram_run-02/stereo_1MP42G3.wav	2.0	0	3.227
148.4871	5.36	G_P	2.0	n/a	n/a	n/a	n/a	Gram/Gram_run-02/stereo_1MP32U2.wav	n/a	0	n/a
153.8576	7.145	G_C	1.0	n/a	n/a	1.0	0.847	Gram/Gram_run-02/CoM09e.wav	1.0	1	1.597
161.0128	6.28	G_F	2.0	n/a	n/a	n/a	n/a	Gram/Gram_run-02/stereo_1MF19U4.wav	n/a	0	n/a
167.3005	6.63	G_C	1.0	2.0	0.645	1.0	1.14	Gram/Gram_run-02/CoM07b.wav	2.0	0	0.645
173.9386	7.195	G_G	1.0	n/a	n/a	1.0	3.4930000000000003	Gram/Gram_run-02/stereo_2MP89G3.wav	1.0	1	2.1550000000000002
181.1437	5.1739999999999995	G_F	2.0	n/a	n/a	n/a	n/a	Gram/Gram_run-02/stereo_1MF07U2.wav	n/a	0	n/a
186.3308	6.944	G_P	2.0	n/a	n/a	1.0	4.239	Gram/Gram_run-02/stereo_2MP88U3.wav	1.0	0	3.1959999999999997
193.2858	6.0889999999999995	G_G	1.0	n/a	n/a	n/a	n/a	Gram/Gram_run-02/stereo_2MF66G3.wav	n/a	0	n/a
199.3896	6.5	G_C	1.0	n/a	n/a	1.0	1.34	Gram/Gram_run-02/CoM01e.wav	1.0	1	2.09
205.8946	6.43	G_P	2.0	n/a	n/a	2.0	4.414	Gram/Gram_run-02/stereo_1MP43U4.wav	2.0	1	2.1319999999999997
212.3325	6.19	G_G	1.0	n/a	n/a	1.0	4.4719999999999995	Gram/Gram_run-02/stereo_2MP84G2.wav	1.0	1	3.5400000000000005
218.537	7.114	G_G	1.0	n/a	n/a	1.0	4.821000000000001	Gram/Gram_run-02/stereo_1MP29G1.wav	1.0	1	2.6330000000000013
225.6587	6.731	G_F	2.0	n/a	n/a	2.0	4.26	Gram/Gram_run-02/stereo_2MF53U1.wav	2.0	1	3.6889999999999996
232.3969	6.015	G_C	1.0	n/a	n/a	1.0	2.991	Gram/Gram_run-02/CoM02d.wav	1.0	1	3.741
238.4179	7.17	G_G	1.0	n/a	n/a	1.0	4.954	Gram/Gram_run-02/stereo_2MF71G4.wav	1.0	1	2.704999999999999
245.5909	5.33	G_C	1.0	n/a	n/a	n/a	n/a	Gram/Gram_run-02/CoM06b.wav	n/a	0	n/a
250.9316	6.9689999999999985	G_F	2.0	n/a	n/a	2.0	3.42	Gram/Gram_run-02/stereo_2MF54U1.wav	2.0	1	2.85
257.9045	7.6	G_G	1.0	n/a	n/a	2.0	5.789	Gram/Gram_run-02/stereo_2MF49G1.wav	2.0	0	3.5999999999999996
