onset	duration	trial_type	correct	window1_response	window1_RT	window2_response	window2_RT	stim_file	calculated_response	calculated_accuracy	calculated_RT
1.084	6.895	G_F	2.0	n/a	n/a	2.0	3.467	Gram/Gram_run-01/stereo_2MF57U2.wav	2.0	1	4.2170000000000005
7.989	7.175	G_F	2.0	n/a	n/a	2.0	2.986	Gram/Gram_run-01/stereo_1MF15U3.wav	2.0	1	3.736
15.178	6.5070000000000014	G_G	1.0	n/a	n/a	1.0	3.097	Gram/Gram_run-01/stereo_1MF11G2.wav	1.0	1	1.9169999999999998
21.7	6.505	G_C	1.0	n/a	n/a	1.0	0.355	Gram/Gram_run-01/CoM09d.wav	1.0	1	1.105
28.205	6.9479999999999995	G_F	2.0	n/a	n/a	1.0	4.218999999999999	Gram/Gram_run-01/stereo_2MF68U4.wav	1.0	0	3.4929999999999986
35.16	5.541	G_P	2.0	n/a	n/a	2.0	2.983	Gram/Gram_run-01/stereo_1MP37U3.wav	2.0	1	1.948
40.714	5.9479999999999995	G_G	1.0	n/a	n/a	1.0	4.526	Gram/Gram_run-01/stereo_2MF50G1.wav	1.0	1	2.431
46.669	6.013	G_F	2.0	n/a	n/a	2.0	4.015	Gram/Gram_run-01/stereo_1MF05U1.wav	2.0	1	3.413
52.69	7.87	G_C	1.0	n/a	n/a	1.0	0.363	Gram/Gram_run-01/CoM01l.wav	1.0	1	1.113
60.563	6.4979999999999976	G_G	1.0	n/a	n/a	1.0	3.947	Gram/Gram_run-01/stereo_1MF23G4.wav	1.0	1	1.766
67.068	6.184	G_F	2.0	n/a	n/a	1.0	3.0810000000000004	Gram/Gram_run-01/stereo_2MF55U2.wav	1.0	0	3.8310000000000004
73.256	6.83	G_C	1.0	n/a	n/a	1.0	0.33899999999999997	Gram/Gram_run-01/CoM10l.wav	1.0	1	1.089
80.094	7.505	G_G	1.0	n/a	n/a	1.0	5.165	Gram/Gram_run-01/stereo_2MP96G4.wav	1.0	1	2.7700000000000005
87.6	7.1370000000000005	G_G	1.0	n/a	n/a	1.0	4.617	Gram/Gram_run-01/stereo_1MP47G4.wav	1.0	1	2.1500000000000004
94.739	6.694	G_F	2.0	n/a	n/a	2.0	3.1319999999999997	Gram/Gram_run-01/stereo_2MF61U3.wav	2.0	1	3.882
101.444	5.39	G_C	1.0	n/a	n/a	1.0	0.405	Gram/Gram_run-01/CoM01d.wav	1.0	1	1.155
106.848	6.5760000000000005	G_G	1.0	n/a	n/a	1.0	2.9	Gram/Gram_run-01/stereo_1MP35G2.wav	1.0	1	1.896
113.436	5.3389999999999995	G_F	2.0	n/a	n/a	n/a	n/a	Gram/Gram_run-01/stereo_2MF69U4.wav	n/a	0	n/a
118.79	7.94	G_C	1.0	2.0	0.111	1.0	1.28	Gram/Gram_run-01/CoM08l.wav	2.0	0	0.111
126.73	6.006	G_P	2.0	n/a	n/a	2.0	3.765	Gram/Gram_run-01/stereo_1MP26U1.wav	2.0	1	1.7890000000000001
132.751	8.422	G_F	2.0	n/a	n/a	2.0	4.538	Gram/Gram_run-01/stereo_1MF06U1.wav	2.0	1	3.9429999999999996
141.174	7.885	G_P	2.0	n/a	n/a	2.0	3.41	Gram/Gram_run-01/stereo_2MP81U2.wav	2.0	1	2.525
149.063	6.1270000000000024	G_G	1.0	n/a	n/a	1.0	3.575	Gram/Gram_run-01/stereo_2MP83G2.wav	1.0	1	2.5150000000000006
155.201	5.765	G_C	1.0	n/a	n/a	1.0	1.147	Gram/Gram_run-01/CoM02b.wav	1.0	1	1.897
160.972	6.706	G_P	2.0	n/a	n/a	2.0	4.978	Gram/Gram_run-01/stereo_2MP93U4.wav	2.0	1	2.5780000000000003
167.678	6.61	G_P	2.0	n/a	n/a	2.0	3.883	Gram/Gram_run-01/stereo_1MP28U1.wav	2.0	1	1.7680000000000007
174.299	6.63	G_C	1.0	n/a	n/a	1.0	1.33	Gram/Gram_run-01/CoM04b.wav	1.0	1	2.08
180.938	5.665	G_P	2.0	n/a	n/a	2.0	4.029	Gram/Gram_run-01/stereo_1MP27U1.wav	2.0	1	2.027
186.609	7.55	G_G	1.0	n/a	n/a	1.0	4.458	Gram/Gram_run-01/stereo_2MP77G1.wav	1.0	1	2.359
194.164	6.51	G_C	1.0	n/a	n/a	1.0	0.924	Gram/Gram_run-01/CoM03e.wav	1.0	1	1.674
200.686	6.98	G_P	2.0	n/a	n/a	2.0	4.393	Gram/Gram_run-01/stereo_2MP92U4.wav	2.0	1	2.0439999999999996
207.675	7.047999999999999	G_G	1.0	n/a	n/a	1.0	3.9960000000000004	Gram/Gram_run-01/stereo_1MF12G2.wav	1.0	1	2.9619999999999997
214.73	5.574	G_F	2.0	n/a	n/a	n/a	n/a	Gram/Gram_run-01/stereo_1MF04U1.wav	n/a	0	n/a
220.318	5.67	G_C	1.0	2.0	0.741	1.0	0.9420000000000001	Gram/Gram_run-01/CoM07d.wav	2.0	0	0.741
225.989	6.6160000000000005	G_P	2.0	n/a	n/a	2.0	2.957	Gram/Gram_run-01/stereo_1MP39U3.wav	2.0	1	1.9529999999999998
232.61	5.695	G_P	2.0	n/a	n/a	2.0	3.0189999999999997	Gram/Gram_run-01/stereo_2MP82U2.wav	2.0	1	2.0980000000000003
238.315	6.6270000000000024	G_F	2.0	n/a	n/a	2.0	3.5189999999999997	Gram/Gram_run-01/stereo_1MF13U3.wav	2.0	1	4.269
244.953	7.145	G_C	1.0	n/a	n/a	1.0	0.35700000000000004	Gram/Gram_run-01/CoM08e.wav	1.0	1	1.107
252.109	6.805	G_G	1.0	n/a	n/a	1.0	4.461	Gram/Gram_run-01/stereo_1MP41G3.wav	1.0	1	3.1550000000000002
258.914	7.519	G_P	2.0	n/a	n/a	2.0	3.035	Gram/Gram_run-01/stereo_1MP38U3.wav	2.0	1	1.796
