onset	duration	trial_type	correct	window1_response	window1_RT	window2_response	window2_RT	stim_file	calculated_response	calculated_accuracy	calculated_RT
1.084	3.5	P_R	1.0	n/a	n/a	1.0	1.725	Phon/Phon_run-02/stereo_PR20.wav	1.0	1	1.475
4.587	4.235	P_O	1.0	n/a	n/a	1.0	1.8969999999999998	Phon/Phon_run-02/PC034.wav	1.0	1	1.647
8.824	3.375	P_R	1.0	n/a	n/a	1.0	1.689	Phon/Phon_run-02/stereo_PR13.wav	1.0	1	1.439
12.21	3.474	P_C	1.0	1.0	0.737	n/a	n/a	Phon/Phon_run-02/ContS12.wav	1.0	1	0.737
15.696	3.875	P_U	2.0	n/a	n/a	2.0	1.645	Phon/Phon_run-02/PM025.wav	2.0	1	1.395
19.582	3.726	P_R	1.0	n/a	n/a	2.0	2.574	Phon/Phon_run-02/stereo_PR22.wav	2.0	0	2.324
23.318	3.451	P_O	1.0	n/a	n/a	1.0	1.85	Phon/Phon_run-02/PC014.wav	1.0	1	1.6
26.771	3.779	P_C	1.0	n/a	n/a	1.0	0.669	Phon/Phon_run-02/ContS02.wav	1.0	1	1.419
30.557	3.821	P_U	2.0	n/a	n/a	2.0	1.69	Phon/Phon_run-02/stereo_PU18.wav	2.0	1	1.44
34.393	3.49	P_U	2.0	n/a	n/a	2.0	1.9569999999999999	Phon/Phon_run-02/stereo_PU12.wav	2.0	1	1.707
37.896	4.38	P_C	1.0	n/a	n/a	1.0	0.042	Phon/Phon_run-02/ContS32.wav	1.0	1	0.792
42.283	4.0969999999999995	P_R	1.0	n/a	n/a	1.0	1.791	Phon/Phon_run-02/stereo_PR16.wav	1.0	1	1.541
46.386	3.5	P_O	1.0	n/a	n/a	2.0	1.7790000000000001	Phon/Phon_run-02/PC022.wav	2.0	0	1.529
49.888999999999996	4.0760000000000005	P_R	1.0	n/a	n/a	1.0	1.817	Phon/Phon_run-02/stereo_PR08.wav	1.0	1	1.567
53.975	3.5	P_O	1.0	n/a	n/a	1.0	2.228	Phon/Phon_run-02/PC028.wav	1.0	1	1.9780000000000002
57.478	3.5	P_U	2.0	n/a	n/a	2.0	1.182	Phon/Phon_run-02/stereo_PU27.wav	2.0	1	0.9319999999999999
60.981	3.819	P_C	1.0	1.0	0.741	n/a	n/a	Phon/Phon_run-02/ContS06.wav	1.0	1	0.741
64.8	4.25	P_O	1.0	n/a	n/a	1.0	1.4080000000000001	Phon/Phon_run-02/PC031.wav	1.0	1	1.158
69.054	3.662	P_C	1.0	1.0	0.6890000000000001	n/a	n/a	Phon/Phon_run-02/ContS36.wav	1.0	1	0.6890000000000001
72.723	3.823	P_O	1.0	n/a	n/a	1.0	2.2230000000000003	Phon/Phon_run-02/PC023.wav	1.0	1	1.9730000000000003
76.559	4.323	P_C	1.0	n/a	n/a	1.0	0.255	Phon/Phon_run-02/ContS24.wav	1.0	1	1.005
80.896	3.865	P_U	2.0	n/a	n/a	2.0	1.619	Phon/Phon_run-02/PM004.wav	2.0	1	1.369
84.766	3.875	P_O	1.0	n/a	n/a	1.0	1.607	Phon/Phon_run-02/PC007.wav	1.0	1	1.357
88.652	4.25	P_U	2.0	n/a	n/a	2.0	1.093	Phon/Phon_run-02/PM011.wav	2.0	1	0.843
92.905	4.362	P_C	1.0	n/a	n/a	1.0	0.03	Phon/Phon_run-02/ContS30.wav	1.0	1	0.78
97.275	3.875	P_O	1.0	n/a	n/a	1.0	1.714	Phon/Phon_run-02/PC030.wav	1.0	1	1.464
101.162	3.3360000000000003	P_R	1.0	n/a	n/a	1.0	1.358	Phon/Phon_run-02/stereo_PR05.wav	1.0	1	1.108
104.49799999999999	4.113	P_U	2.0	n/a	n/a	2.0	1.4569999999999999	Phon/Phon_run-02/stereo_PU01.wav	2.0	1	1.207
108.618	4.1739999999999995	P_U	2.0	n/a	n/a	2.0	1.625	Phon/Phon_run-02/PM029.wav	2.0	1	1.375
112.804	3.4539999999999997	P_C	1.0	n/a	n/a	1.0	0.18899999999999997	Phon/Phon_run-02/ContS08.wav	1.0	1	0.9390000000000001
116.273	3.446	P_R	1.0	n/a	n/a	1.0	1.631	Phon/Phon_run-02/stereo_PR30.wav	1.0	1	1.381
119.726	3.85	P_R	1.0	n/a	n/a	2.0	1.525	Phon/Phon_run-02/stereo_PR07.wav	2.0	0	1.275
123.579	3.438	P_U	2.0	n/a	n/a	2.0	1.7480000000000002	Phon/Phon_run-02/stereo_PU02.wav	2.0	1	1.4980000000000002
127.03200000000001	3.915	P_C	1.0	n/a	n/a	1.0	0.04	Phon/Phon_run-02/ContS20.wav	1.0	1	0.79
130.951	3.487	P_U	2.0	n/a	n/a	n/a	n/a	Phon/Phon_run-02/PM021.wav	n/a	0	n/a
134.454	3.965	P_C	1.0	n/a	n/a	1.0	0.046	Phon/Phon_run-02/ContS26.wav	1.0	1	0.796
138.424	3.792	P_R	1.0	n/a	n/a	2.0	2.505	Phon/Phon_run-02/stereo_PR31.wav	2.0	0	2.255
142.227	4.135	P_O	1.0	n/a	n/a	1.0	1.973	Phon/Phon_run-02/PC024.wav	1.0	1	1.723
146.363	3.875	P_U	2.0	n/a	n/a	2.0	1.82	Phon/Phon_run-02/PM010.wav	2.0	1	1.57
150.25	3.875	P_O	1.0	n/a	n/a	1.0	1.935	Phon/Phon_run-02/PC015.wav	1.0	1	1.685
154.136	4.245	P_C	1.0	n/a	n/a	1.0	0.20800000000000002	Phon/Phon_run-02/ContS14.wav	1.0	1	0.958
158.389	3.854	P_R	1.0	n/a	n/a	2.0	2.085	Phon/Phon_run-02/stereo_PR14.wav	2.0	0	1.835
162.259	4.239	P_O	1.0	n/a	n/a	1.0	1.653	Phon/Phon_run-02/PC008.wav	1.0	1	1.403
166.512	4.25	P_U	2.0	n/a	n/a	2.0	1.9140000000000001	Phon/Phon_run-02/stereo_PU11.wav	2.0	1	1.664
170.766	3.523	P_C	1.0	1.0	0.718	n/a	n/a	Phon/Phon_run-02/ContS18.wav	1.0	1	0.718
174.30200000000005	3.429	P_O	1.0	n/a	n/a	1.0	1.56	Phon/Phon_run-02/PC006.wav	1.0	1	1.31
177.738	4.18	P_R	1.0	n/a	n/a	2.0	1.581	Phon/Phon_run-02/stereo_PR32.wav	2.0	0	1.331
181.924	4.104	P_R	1.0	n/a	n/a	1.0	1.459	Phon/Phon_run-02/stereo_PR24.wav	1.0	1	1.209
