onset	duration	trial_type	correct	window1_response	window1_RT	window2_response	window2_RT	stim_file	calculated_response	calculated_accuracy	calculated_RT
1.084	7.034	SP_W	1.0	n/a	n/a	1.0	3.707	Plaus/Plaus_run-01/stereo_PW85.wav	1.0	1	1.5599999999999996
8.123	5.641	SP_I	2.0	n/a	n/a	2.0	2.763	Plaus/Plaus_run-01/stereo_PI11.wav	2.0	1	1.843
13.777	6.77	SP_C	1.0	n/a	n/a	1.0	0.378	Plaus/Plaus_run-01/CoM08b.wav	1.0	1	1.128
20.549	7.327000000000001	SP_W	1.0	n/a	n/a	1.0	3.382	Plaus/Plaus_run-01/stereo_PW72.wav	1.0	1	1.4019999999999997
27.888	6.145	SP_C	1.0	n/a	n/a	1.0	0.5770000000000001	Plaus/Plaus_run-01/CoM05d.wav	1.0	1	1.327
34.043	5.181	SP_I	2.0	n/a	n/a	2.0	2.93	Plaus/Plaus_run-01/stereo_PI65.wav	2.0	1	1.9880000000000002
39.23	5.092	SP_S	1.0	n/a	n/a	1.0	2.516	Plaus/Plaus_run-01/stereo_PC13.wav	1.0	1	1.4529999999999998
44.334	7.355	SP_C	1.0	n/a	n/a	1.0	2.077	Plaus/Plaus_run-01/CoM06l.wav	1.0	1	2.827
51.69	7.47	SP_I	2.0	n/a	n/a	2.0	3.967	Plaus/Plaus_run-01/stereo_PI90.wav	2.0	1	1.7960000000000005
59.162	7.399	SP_S	1.0	n/a	n/a	1.0	3.49	Plaus/Plaus_run-01/stereo_PC35.wav	1.0	1	1.2230000000000003
66.568	5.685	SP_S	1.0	n/a	n/a	1.0	2.479	Plaus/Plaus_run-01/stereo_PC47.wav	1.0	1	1.47
72.255	5.669	SP_W	1.0	n/a	n/a	1.0	2.643	Plaus/Plaus_run-01/stereo_PW19.wav	1.0	1	1.6370000000000002
77.926	7.9	SP_C	1.0	n/a	n/a	1.0	0.687	Plaus/Plaus_run-01/CoM03l.wav	1.0	1	1.4369999999999998
85.83200000000002	5.145	SP_I	2.0	n/a	n/a	2.0	2.943	Plaus/Plaus_run-01/stereo_PI09.wav	2.0	1	1.9350000000000005
90.986	6.9170000000000025	SP_W	1.0	n/a	n/a	1.0	3.617	Plaus/Plaus_run-01/stereo_PW30.wav	1.0	1	1.497
97.908	5.738	SP_S	1.0	n/a	n/a	1.0	2.915	Plaus/Plaus_run-01/stereo_PC14.wav	1.0	1	1.744
103.646	6.276	SP_W	1.0	n/a	n/a	1.0	2.742	Plaus/Plaus_run-01/stereo_PW50.wav	1.0	1	1.92
109.934	5.49	SP_C	1.0	n/a	n/a	1.0	1.388	Plaus/Plaus_run-01/CoM03d.wav	1.0	1	2.138
115.438	5.7	SP_I	2.0	n/a	n/a	2.0	2.524	Plaus/Plaus_run-01/stereo_PI67.wav	2.0	1	1.633
121.143	7.237	SP_S	1.0	n/a	n/a	1.0	3.5210000000000004	Plaus/Plaus_run-01/stereo_PC68.wav	1.0	1	1.5550000000000002
128.382	6.49	SP_C	1.0	n/a	n/a	1.0	0.527	Plaus/Plaus_run-01/CoM03b.wav	1.0	1	1.277
134.887	6.25	SP_W	1.0	n/a	n/a	2.0	2.928	Plaus/Plaus_run-01/stereo_PW61.wav	2.0	0	1.9480000000000002
141.141	6.952999999999999	SP_I	2.0	n/a	n/a	2.0	3.938	Plaus/Plaus_run-01/stereo_PI32.wav	2.0	1	1.773
148.097	7.085	SP_C	1.0	n/a	n/a	1.0	0.75	Plaus/Plaus_run-01/CoM02e.wav	1.0	1	1.5
155.185	6.3610000000000015	SP_S	1.0	n/a	n/a	1.0	4.834	Plaus/Plaus_run-01/stereo_PC24.wav	1.0	1	2.576
161.55700000000004	5.1110000000000015	SP_W	1.0	n/a	n/a	1.0	2.239	Plaus/Plaus_run-01/stereo_PW53.wav	1.0	1	1.225
166.67700000000005	6.2860000000000005	SP_I	2.0	n/a	n/a	2.0	3.613	Plaus/Plaus_run-01/stereo_PI42.wav	2.0	1	1.4170000000000005
172.96599999999995	6.577000000000001	SP_S	1.0	n/a	n/a	1.0	2.3480000000000003	Plaus/Plaus_run-01/stereo_PC57.wav	1.0	1	1.1530000000000002
179.554	5.273	SP_W	1.0	n/a	n/a	2.0	2.91	Plaus/Plaus_run-01/stereo_PW18.wav	2.0	0	1.743
184.841	5.77	SP_C	1.0	n/a	n/a	1.0	0.6890000000000001	Plaus/Plaus_run-01/CoM09b.wav	1.0	1	1.439
190.612	6.731	SP_S	1.0	n/a	n/a	1.0	4.064	Plaus/Plaus_run-01/stereo_PC26.wav	1.0	1	1.964
197.351	7.212999999999999	SP_I	2.0	n/a	n/a	2.0	3.509	Plaus/Plaus_run-01/stereo_PI33.wav	2.0	1	1.5259999999999998
204.573	5.181	SP_S	1.0	n/a	n/a	1.0	2.752	Plaus/Plaus_run-01/stereo_PC01.wav	1.0	1	1.811
209.76	6.238	SP_S	1.0	n/a	n/a	1.0	3.816	Plaus/Plaus_run-01/stereo_PC36.wav	1.0	1	1.77
215.998	7.73	SP_C	1.0	n/a	n/a	1.0	0.7909999999999999	Plaus/Plaus_run-01/CoM10e.wav	1.0	1	1.541
223.738	6.843	SP_I	2.0	n/a	n/a	2.0	3.734	Plaus/Plaus_run-01/stereo_PI45.wav	2.0	1	1.6070000000000002
230.593	6.101	SP_W	1.0	n/a	n/a	1.0	3.734	Plaus/Plaus_run-01/stereo_PW28.wav	1.0	1	1.802
236.698	7.419	SP_W	1.0	n/a	n/a	1.0	3.907	Plaus/Plaus_run-01/stereo_PW86.wav	1.0	1	1.8710000000000004
244.12	6.54	SP_C	1.0	n/a	n/a	1.0	1.111	Plaus/Plaus_run-01/CoM05e.wav	1.0	1	1.861
250.675	6.247000000000001	SP_I	2.0	n/a	n/a	2.0	2.793	Plaus/Plaus_run-01/stereo_PI12.wav	2.0	1	1.922
