onset	duration	trial_type	correct	window1_response	window1_RT	window2_response	window2_RT	stim_file	calculated_response	calculated_accuracy	calculated_RT
1.0918	4.2	S_U	2.0	n/a	n/a	2.0	1.359	Sem/Sem_run-01/stereo_1SU41A0.wav	2.0	1	1.109
5.2953	3.596	S_C	1.0	1.0	0.693	1.0	0.902	Sem/Sem_run-01/ContS29.wav	1.0	1	0.693
8.898	3.425	S_U	2.0	n/a	n/a	2.0	1.995	Sem/Sem_run-01/stereo_2SU87A0.wav	2.0	1	1.745
12.3338	3.933	S_H	1.0	n/a	n/a	1.0	1.42	Sem/Sem_run-01/stereo_1SH13A0.wav	1.0	1	1.17
16.2699	4.323	S_H	1.0	n/a	n/a	1.0	1.4769999999999999	Sem/Sem_run-01/stereo_1SH05A0.wav	1.0	1	1.227
20.6064	4.073	S_C	1.0	1.0	0.65	1.0	1.205	Sem/Sem_run-01/ContS31.wav	1.0	1	0.65
24.6927	3.869	S_L	1.0	n/a	n/a	1.0	1.247	Sem/Sem_run-01/stereo_2SL63A0.wav	1.0	1	0.997
28.5634	3.75	S_L	1.0	n/a	n/a	2.0	1.419	Sem/Sem_run-01/stereo_1SL29A0.wav	2.0	0	1.169
32.3161	4.3660000000000005	S_U	2.0	n/a	n/a	2.0	1.284	Sem/Sem_run-01/stereo_2SU78A0.wav	2.0	1	1.034
36.6859	3.3	S_L	1.0	n/a	n/a	1.0	1.242	Sem/Sem_run-01/stereo_1SL17A0.wav	1.0	1	0.992
39.9885	3.884	S_C	1.0	1.0	0.684	1.0	0.843	Sem/Sem_run-01/ContS05.wav	1.0	1	0.684
43.8755	4.371	S_H	1.0	n/a	n/a	1.0	1.339	Sem/Sem_run-01/stereo_2SH58A0.wav	1.0	1	1.089
48.2606	4.329	S_L	1.0	n/a	n/a	1.0	1.155	Sem/Sem_run-01/stereo_2SL72A0.wav	1.0	1	0.905
52.5971	3.94	S_H	1.0	n/a	n/a	2.0	1.7	Sem/Sem_run-01/stereo_2SH57A0.wav	2.0	0	1.45
56.55	4.2	S_U	2.0	n/a	n/a	2.0	1.629	Sem/Sem_run-01/stereo_2SU83A0.wav	2.0	1	1.379
60.753	3.474	S_C	1.0	1.0	0.743	1.0	0.848	Sem/Sem_run-01/ContS11.wav	1.0	1	0.743
64.2389	4.271	S_L	1.0	n/a	n/a	1.0	1.406	Sem/Sem_run-01/stereo_1SL26A0.wav	1.0	1	1.156
68.5248	3.91	S_L	1.0	n/a	n/a	1.0	1.281	Sem/Sem_run-01/stereo_1SL25A0.wav	1.0	1	1.031
72.4443	4.479	S_C	1.0	1.0	0.667	1.0	0.7859999999999999	Sem/Sem_run-01/ContS25.wav	1.0	1	0.667
76.9309	3.378	S_U	2.0	n/a	n/a	2.0	1.675	Sem/Sem_run-01/stereo_2SU81A0.wav	2.0	1	1.425
80.3167	3.42	S_L	1.0	n/a	n/a	1.0	1.761	Sem/Sem_run-01/stereo_1SL27A0.wav	1.0	1	1.511
83.7479	4.3439999999999985	S_L	1.0	n/a	n/a	2.0	2.365	Sem/Sem_run-01/stereo_1SL30A0.wav	2.0	0	2.115
88.1008	3.909	S_L	1.0	n/a	n/a	1.0	1.1440000000000001	Sem/Sem_run-01/stereo_2SL71A0.wav	1.0	1	0.8940000000000001
92.0205	3.867	S_H	1.0	n/a	n/a	1.0	1.489	Sem/Sem_run-01/stereo_1SH04A0.wav	1.0	1	1.239
95.8902	3.828	S_U	2.0	n/a	n/a	1.0	1.7269999999999999	Sem/Sem_run-01/stereo_1SU37A0.wav	1.0	0	1.4769999999999999
99.7264	4.565	S_C	1.0	1.0	0.634	1.0	1.097	Sem/Sem_run-01/ContS35.wav	1.0	1	0.634
104.2964	3.3	S_U	2.0	n/a	n/a	2.0	1.66	Sem/Sem_run-01/stereo_1SU35A0.wav	2.0	1	1.41
107.5986	3.477	S_L	1.0	n/a	n/a	1.0	1.3019999999999998	Sem/Sem_run-01/stereo_2SL65A0.wav	1.0	1	1.0519999999999998
111.0845	3.83	S_H	1.0	n/a	n/a	1.0	1.2690000000000001	Sem/Sem_run-01/stereo_1SH07A0.wav	1.0	1	1.0190000000000001
114.9207	4.3439999999999985	S_C	1.0	1.0	0.66	1.0	0.809	Sem/Sem_run-01/ContS07.wav	1.0	1	0.66
119.2738	3.5	S_H	1.0	n/a	n/a	1.0	1.456	Sem/Sem_run-01/stereo_1SH03A0.wav	1.0	1	1.206
122.7765	3.919	S_U	2.0	n/a	n/a	2.0	1.433	Sem/Sem_run-01/stereo_1SU45A0.wav	2.0	1	1.183
126.697	3.5	S_H	1.0	n/a	n/a	2.0	2.1719999999999997	Sem/Sem_run-01/stereo_1SH06A0.wav	2.0	0	1.922
130.1996	3.392	S_L	1.0	n/a	n/a	1.0	1.8319999999999999	Sem/Sem_run-01/stereo_2SL62A0.wav	1.0	1	1.5819999999999999
133.6021	3.54	S_C	1.0	1.0	0.745	1.0	0.9490000000000001	Sem/Sem_run-01/ContS19.wav	1.0	1	0.745
137.1547	4.4	S_H	1.0	n/a	n/a	2.0	1.624	Sem/Sem_run-01/stereo_1SH15A0.wav	2.0	0	1.374
141.5578	3.342	S_H	1.0	n/a	n/a	1.0	1.53	Sem/Sem_run-01/stereo_1SH11A0.wav	1.0	1	1.28
144.9103	3.385	S_U	2.0	n/a	n/a	2.0	1.216	Sem/Sem_run-01/stereo_1SU44A0.wav	2.0	1	0.966
148.2972	3.4160000000000004	S_H	1.0	n/a	n/a	1.0	1.3090000000000002	Sem/Sem_run-01/stereo_2SH56A0.wav	1.0	1	1.0590000000000002
151.7164	3.849	S_U	2.0	n/a	n/a	2.0	1.597	Sem/Sem_run-01/stereo_2SU82A0.wav	2.0	1	1.347
155.5691	3.934	S_C	1.0	n/a	n/a	1.0	0.332	Sem/Sem_run-01/ContS13.wav	1.0	1	1.082
159.506	4.309	S_L	1.0	n/a	n/a	1.0	1.298	Sem/Sem_run-01/stereo_2SL64A0.wav	1.0	1	1.048
163.8257	4.413	S_C	1.0	n/a	n/a	1.0	0.193	Sem/Sem_run-01/ContS17.wav	1.0	1	0.943
168.2456	4.2	S_U	2.0	n/a	n/a	2.0	1.9269999999999998	Sem/Sem_run-01/stereo_2SU90A0.wav	2.0	1	1.6769999999999998
172.4489	3.846	S_U	2.0	n/a	n/a	2.0	1.81	Sem/Sem_run-01/stereo_2SU88A0.wav	2.0	1	1.56
176.3017	3.3939999999999997	S_C	1.0	1.0	0.51	1.0	0.611	Sem/Sem_run-01/ContS01.wav	1.0	1	0.51
179.7041	4.013	S_C	1.0	1.0	0.711	1.0	0.934	Sem/Sem_run-01/ContS23.wav	1.0	1	0.711
183.7237	4.227	S_H	1.0	n/a	n/a	1.0	1.675	Sem/Sem_run-01/stereo_1SH08A0.wav	1.0	1	1.425
