onset	duration	trial_type	correct	window1_response	window1_RT	window2_response	window2_RT	stim_file	calculated_response	calculated_accuracy	calculated_RT
1.084	4.2	S_U	2.0	n/a	n/a	2.0	1.64	Sem/Sem_run-01/stereo_1SU41A0.wav	2.0	1	1.39
5.287000000000001	3.596	S_C	1.0	n/a	n/a	1.0	0.147	Sem/Sem_run-01/ContS29.wav	1.0	1	0.897
8.89	3.425	S_U	2.0	n/a	n/a	2.0	1.554	Sem/Sem_run-01/stereo_2SU87A0.wav	2.0	1	1.304
12.325999999999999	3.933	S_H	1.0	n/a	n/a	1.0	1.046	Sem/Sem_run-01/stereo_1SH13A0.wav	1.0	1	0.796
16.262	4.323	S_H	1.0	n/a	n/a	1.0	1.242	Sem/Sem_run-01/stereo_1SH05A0.wav	1.0	1	0.992
20.599	4.073	S_C	1.0	n/a	n/a	1.0	0.03	Sem/Sem_run-01/ContS31.wav	1.0	1	0.78
24.685	3.869	S_L	1.0	n/a	n/a	1.0	1.4369999999999998	Sem/Sem_run-01/stereo_2SL63A0.wav	1.0	1	1.1869999999999998
28.555	3.75	S_L	1.0	n/a	n/a	2.0	1.7469999999999999	Sem/Sem_run-01/stereo_1SL29A0.wav	2.0	0	1.497
32.306999999999995	4.3660000000000005	S_U	2.0	n/a	n/a	2.0	2.647	Sem/Sem_run-01/stereo_2SU78A0.wav	2.0	1	2.397
36.677	3.3	S_L	1.0	n/a	n/a	1.0	1.169	Sem/Sem_run-01/stereo_1SL17A0.wav	1.0	1	0.919
39.98	3.884	S_C	1.0	n/a	n/a	1.0	0.049	Sem/Sem_run-01/ContS05.wav	1.0	1	0.799
43.86600000000001	4.371	S_H	1.0	n/a	n/a	1.0	1.2109999999999999	Sem/Sem_run-01/stereo_2SH58A0.wav	1.0	1	0.9610000000000001
48.253	4.329	S_L	1.0	n/a	n/a	1.0	1.0090000000000001	Sem/Sem_run-01/stereo_2SL72A0.wav	1.0	1	0.7589999999999999
52.589	3.94	S_H	1.0	n/a	n/a	1.0	1.695	Sem/Sem_run-01/stereo_2SH57A0.wav	1.0	1	1.445
56.542	4.2	S_U	2.0	n/a	n/a	2.0	2.7689999999999997	Sem/Sem_run-01/stereo_2SU83A0.wav	2.0	1	2.519
60.746	3.474	S_C	1.0	n/a	n/a	1.0	1.969	Sem/Sem_run-01/ContS11.wav	1.0	1	2.7190000000000003
64.232	4.271	S_L	1.0	n/a	n/a	1.0	2.86	Sem/Sem_run-01/stereo_1SL26A0.wav	1.0	1	2.61
68.518	3.91	S_L	1.0	n/a	n/a	1.0	1.911	Sem/Sem_run-01/stereo_1SL25A0.wav	1.0	1	1.661
72.438	4.479	S_C	1.0	1.0	0.701	1.0	0.872	Sem/Sem_run-01/ContS25.wav	1.0	1	0.701
76.925	3.378	S_U	2.0	n/a	n/a	n/a	n/a	Sem/Sem_run-01/stereo_2SU81A0.wav	2.0	1	2.5140000000000002
80.31	3.42	S_L	1.0	2.0	0.136	1.0	1.202	Sem/Sem_run-01/stereo_1SL27A0.wav	1.0	1	0.952
83.73	4.3439999999999985	S_L	1.0	n/a	n/a	1.0	0.898	Sem/Sem_run-01/stereo_1SL30A0.wav	1.0	1	0.648
88.083	3.909	S_L	1.0	n/a	n/a	1.0	1.905	Sem/Sem_run-01/stereo_2SL71A0.wav	1.0	1	1.655
92.00299999999999	3.867	S_H	1.0	n/a	n/a	1.0	2.391	Sem/Sem_run-01/stereo_1SH04A0.wav	1.0	1	2.141
95.87200000000001	3.828	S_U	2.0	n/a	n/a	2.0	1.5630000000000002	Sem/Sem_run-01/stereo_1SU37A0.wav	2.0	1	1.3130000000000002
99.709	4.565	S_C	1.0	n/a	n/a	1.0	0.24600000000000002	Sem/Sem_run-01/ContS35.wav	1.0	1	0.996
104.279	3.3	S_U	2.0	n/a	n/a	1.0	1.328	Sem/Sem_run-01/stereo_1SU35A0.wav	1.0	0	1.078
107.581	3.477	S_L	1.0	n/a	n/a	n/a	n/a	Sem/Sem_run-01/stereo_2SL65A0.wav	n/a	0	n/a
111.06700000000001	3.83	S_H	1.0	n/a	n/a	1.0	1.296	Sem/Sem_run-01/stereo_1SH07A0.wav	1.0	1	1.046
114.90299999999999	4.3439999999999985	S_C	1.0	n/a	n/a	1.0	0.071	Sem/Sem_run-01/ContS07.wav	1.0	1	0.821
119.257	3.5	S_H	1.0	n/a	n/a	1.0	1.4340000000000002	Sem/Sem_run-01/stereo_1SH03A0.wav	1.0	1	1.1840000000000002
122.759	3.919	S_U	2.0	n/a	n/a	1.0	2.1430000000000002	Sem/Sem_run-01/stereo_1SU45A0.wav	1.0	0	1.8929999999999998
126.679	3.5	S_H	1.0	n/a	n/a	1.0	2.151	Sem/Sem_run-01/stereo_1SH06A0.wav	1.0	1	1.9009999999999998
130.18200000000002	3.392	S_L	1.0	n/a	n/a	n/a	n/a	Sem/Sem_run-01/stereo_2SL62A0.wav	n/a	0	n/a
133.584	3.54	S_C	1.0	1.0	0.69	1.0	1.2770000000000001	Sem/Sem_run-01/ContS19.wav	1.0	1	0.69
137.137	4.4	S_H	1.0	n/a	n/a	1.0	2.372	Sem/Sem_run-01/stereo_1SH15A0.wav	1.0	1	2.122
141.54	3.342	S_H	1.0	n/a	n/a	1.0	1.857	Sem/Sem_run-01/stereo_1SH11A0.wav	1.0	1	1.607
144.893	3.385	S_U	2.0	n/a	n/a	2.0	2.205	Sem/Sem_run-01/stereo_1SU44A0.wav	2.0	1	1.955
148.279	3.4160000000000004	S_H	1.0	n/a	n/a	1.0	1.764	Sem/Sem_run-01/stereo_2SH56A0.wav	1.0	1	1.514
151.69799999999995	3.849	S_U	2.0	n/a	n/a	2.0	1.994	Sem/Sem_run-01/stereo_2SU82A0.wav	2.0	1	1.744
155.55100000000004	3.934	S_C	1.0	n/a	n/a	1.0	0.127	Sem/Sem_run-01/ContS13.wav	1.0	1	0.877
159.487	4.309	S_L	1.0	n/a	n/a	1.0	1.382	Sem/Sem_run-01/stereo_2SL64A0.wav	1.0	1	1.132
163.80700000000004	4.413	S_C	1.0	1.0	0.526	1.0	0.889	Sem/Sem_run-01/ContS17.wav	1.0	1	0.526
168.227	4.2	S_U	2.0	n/a	n/a	1.0	2.188	Sem/Sem_run-01/stereo_2SU90A0.wav	1.0	0	1.9380000000000002
172.43	3.846	S_U	2.0	n/a	n/a	1.0	1.712	Sem/Sem_run-01/stereo_2SU88A0.wav	1.0	0	1.462
176.283	3.3939999999999997	S_C	1.0	2.0	0.18600000000000003	1.0	0.114	Sem/Sem_run-01/ContS01.wav	2.0	0	0.18600000000000005
179.68599999999995	4.013	S_C	1.0	n/a	n/a	1.0	1.632	Sem/Sem_run-01/ContS23.wav	1.0	1	2.3819999999999997
183.706	4.227	S_H	1.0	n/a	n/a	1.0	1.4040000000000001	Sem/Sem_run-01/stereo_1SH08A0.wav	1.0	1	1.154
