onset	duration	trial_type	correct	window1_response	window1_RT	window2_response	window2_RT	stim_file	calculated_response	calculated_accuracy	calculated_RT
1.068	3.5	P_R	1.0	n/a	n/a	1.0	1.7309999999999999	Phon/Phon_run-02/stereo_PR20.wav	1.0	1	1.481
4.57	4.235	P_O	1.0	n/a	n/a	1.0	1.396	Phon/Phon_run-02/PC034.wav	1.0	1	1.146
8.807	3.375	P_R	1.0	n/a	n/a	2.0	0.99	Phon/Phon_run-02/stereo_PR13.wav	2.0	0	0.74
12.193	3.474	P_C	1.0	n/a	n/a	1.0	0.161	Phon/Phon_run-02/ContS12.wav	1.0	1	0.911
15.679	3.875	P_U	2.0	n/a	n/a	2.0	2.242	Phon/Phon_run-02/PM025.wav	2.0	1	1.992
19.565	3.726	P_R	1.0	n/a	n/a	1.0	1.208	Phon/Phon_run-02/stereo_PR22.wav	1.0	1	0.958
23.301	3.451	P_O	1.0	n/a	n/a	2.0	1.37	Phon/Phon_run-02/PC014.wav	2.0	0	1.12
26.754	3.779	P_C	1.0	n/a	n/a	1.0	0.371	Phon/Phon_run-02/ContS02.wav	1.0	1	1.121
30.54	3.821	P_U	2.0	n/a	n/a	1.0	1.944	Phon/Phon_run-02/stereo_PU18.wav	1.0	0	1.694
34.376999999999995	3.49	P_U	2.0	2.0	0.242	2.0	1.969	Phon/Phon_run-02/stereo_PU12.wav	2.0	1	1.719
37.879	4.38	P_C	1.0	n/a	n/a	1.0	0.10300000000000001	Phon/Phon_run-02/ContS32.wav	1.0	1	0.853
42.26600000000001	4.0969999999999995	P_R	1.0	n/a	n/a	1.0	1.9880000000000002	Phon/Phon_run-02/stereo_PR16.wav	1.0	1	1.738
46.369	3.5	P_O	1.0	n/a	n/a	1.0	2.083	Phon/Phon_run-02/PC022.wav	1.0	1	1.8330000000000002
49.872	4.0760000000000005	P_R	1.0	n/a	n/a	1.0	1.2329999999999999	Phon/Phon_run-02/stereo_PR08.wav	1.0	1	0.9830000000000001
53.958	3.5	P_O	1.0	n/a	n/a	n/a	n/a	Phon/Phon_run-02/PC028.wav	n/a	0	n/a
57.46100000000001	3.5	P_U	2.0	n/a	n/a	1.0	1.365	Phon/Phon_run-02/stereo_PU27.wav	1.0	0	1.115
60.964	3.819	P_C	1.0	n/a	n/a	1.0	0.021	Phon/Phon_run-02/ContS06.wav	1.0	1	0.771
64.783	4.25	P_O	1.0	n/a	n/a	1.0	1.751	Phon/Phon_run-02/PC031.wav	1.0	1	1.501
69.03699999999999	3.662	P_C	1.0	n/a	n/a	1.0	0.267	Phon/Phon_run-02/ContS36.wav	1.0	1	1.017
72.706	3.823	P_O	1.0	n/a	n/a	n/a	n/a	Phon/Phon_run-02/PC023.wav	n/a	0	n/a
76.542	4.323	P_C	1.0	n/a	n/a	1.0	0.10800000000000001	Phon/Phon_run-02/ContS24.wav	1.0	1	0.858
80.87899999999998	3.865	P_U	2.0	n/a	n/a	2.0	1.5859999999999999	Phon/Phon_run-02/PM004.wav	2.0	1	1.336
84.749	3.875	P_O	1.0	n/a	n/a	1.0	1.831	Phon/Phon_run-02/PC007.wav	1.0	1	1.581
88.635	4.25	P_U	2.0	n/a	n/a	2.0	2.151	Phon/Phon_run-02/PM011.wav	2.0	1	1.9009999999999998
92.88799999999999	4.362	P_C	1.0	n/a	n/a	1.0	1.237	Phon/Phon_run-02/ContS30.wav	1.0	1	1.987
97.258	3.875	P_O	1.0	n/a	n/a	1.0	1.66	Phon/Phon_run-02/PC030.wav	1.0	1	1.41
101.145	3.3360000000000003	P_R	1.0	n/a	n/a	1.0	1.3430000000000002	Phon/Phon_run-02/stereo_PR05.wav	1.0	1	1.0930000000000002
104.48100000000001	4.113	P_U	2.0	n/a	n/a	1.0	1.35	Phon/Phon_run-02/stereo_PU01.wav	1.0	0	1.1
108.6	4.1739999999999995	P_U	2.0	n/a	n/a	1.0	1.5319999999999998	Phon/Phon_run-02/PM029.wav	1.0	0	1.2819999999999998
112.787	3.4539999999999997	P_C	1.0	n/a	n/a	1.0	0.467	Phon/Phon_run-02/ContS08.wav	1.0	1	1.217
116.256	3.446	P_R	1.0	n/a	n/a	n/a	n/a	Phon/Phon_run-02/stereo_PR30.wav	1.0	1	2.895
119.709	3.85	P_R	1.0	1.0	0.449	1.0	2.051	Phon/Phon_run-02/stereo_PR07.wav	1.0	1	1.8010000000000002
123.56200000000001	3.438	P_U	2.0	n/a	n/a	1.0	1.442	Phon/Phon_run-02/stereo_PU02.wav	1.0	0	1.192
127.015	3.915	P_C	1.0	1.0	0.5870000000000001	1.0	0.9490000000000001	Phon/Phon_run-02/ContS20.wav	1.0	1	0.5870000000000001
130.934	3.487	P_U	2.0	n/a	n/a	1.0	1.5530000000000002	Phon/Phon_run-02/PM021.wav	1.0	0	1.3030000000000002
134.437	3.965	P_C	1.0	n/a	n/a	1.0	0.672	Phon/Phon_run-02/ContS26.wav	1.0	1	1.4220000000000002
138.407	3.792	P_R	1.0	n/a	n/a	1.0	2.59	Phon/Phon_run-02/stereo_PR31.wav	1.0	1	2.34
142.21	4.135	P_O	1.0	n/a	n/a	n/a	n/a	Phon/Phon_run-02/PC024.wav	n/a	0	n/a
146.346	3.875	P_U	2.0	n/a	n/a	n/a	n/a	Phon/Phon_run-02/PM010.wav	2.0	1	3.0460000000000003
150.232	3.875	P_O	1.0	2.0	0.171	n/a	n/a	Phon/Phon_run-02/PC015.wav	n/a	0	n/a
154.119	4.245	P_C	1.0	n/a	n/a	1.0	0.182	Phon/Phon_run-02/ContS14.wav	1.0	1	0.9319999999999999
158.372	3.854	P_R	1.0	n/a	n/a	n/a	n/a	Phon/Phon_run-02/stereo_PR14.wav	n/a	0	n/a
162.24200000000005	4.239	P_O	1.0	n/a	n/a	1.0	2.5540000000000003	Phon/Phon_run-02/PC008.wav	1.0	1	2.3040000000000003
166.495	4.25	P_U	2.0	n/a	n/a	2.0	1.6909999999999998	Phon/Phon_run-02/stereo_PU11.wav	2.0	1	1.4409999999999998
170.748	3.523	P_C	1.0	n/a	n/a	1.0	0.174	Phon/Phon_run-02/ContS18.wav	1.0	1	0.9239999999999999
174.28400000000005	3.429	P_O	1.0	n/a	n/a	n/a	n/a	Phon/Phon_run-02/PC006.wav	n/a	0	n/a
177.72	4.18	P_R	1.0	n/a	n/a	1.0	1.3090000000000002	Phon/Phon_run-02/stereo_PR32.wav	1.0	1	1.0590000000000002
181.907	4.104	P_R	1.0	n/a	n/a	1.0	2.077	Phon/Phon_run-02/stereo_PR24.wav	1.0	1	1.827
