onset	duration	trial_type	correct	window1_response	window1_RT	window2_response	window2_RT	stim_file	calculated_response	calculated_accuracy	calculated_RT
1.101	3.5	P_R	1.0	n/a	n/a	1.0	1.774	Phon/Phon_run-02/stereo_PR20.wav	1.0	1	1.524
4.603	4.235	P_O	1.0	n/a	n/a	1.0	1.365	Phon/Phon_run-02/PC034.wav	1.0	1	1.115
8.84	3.375	P_R	1.0	n/a	n/a	1.0	1.4669999999999999	Phon/Phon_run-02/stereo_PR13.wav	1.0	1	1.2169999999999999
12.225999999999999	3.474	P_C	1.0	n/a	n/a	1.0	1.564	Phon/Phon_run-02/ContS12.wav	1.0	1	2.314
15.712	3.875	P_U	2.0	n/a	n/a	2.0	1.357	Phon/Phon_run-02/PM025.wav	2.0	1	1.107
19.598	3.726	P_R	1.0	n/a	n/a	1.0	1.3980000000000001	Phon/Phon_run-02/stereo_PR22.wav	1.0	1	1.1480000000000001
23.335	3.451	P_O	1.0	n/a	n/a	1.0	1.318	Phon/Phon_run-02/PC014.wav	1.0	1	1.068
26.787	3.779	P_C	1.0	n/a	n/a	1.0	1.5919999999999999	Phon/Phon_run-02/ContS02.wav	1.0	1	2.3419999999999996
30.574	3.821	P_U	2.0	n/a	n/a	2.0	1.618	Phon/Phon_run-02/stereo_PU18.wav	2.0	1	1.368
34.41	3.49	P_U	2.0	n/a	n/a	2.0	1.611	Phon/Phon_run-02/stereo_PU12.wav	2.0	1	1.361
37.913000000000004	4.38	P_C	1.0	n/a	n/a	1.0	2.2030000000000003	Phon/Phon_run-02/ContS32.wav	1.0	1	2.9530000000000003
42.299	4.0969999999999995	P_R	1.0	n/a	n/a	1.0	1.422	Phon/Phon_run-02/stereo_PR16.wav	1.0	1	1.172
46.402	3.5	P_O	1.0	n/a	n/a	1.0	1.411	Phon/Phon_run-02/PC022.wav	1.0	1	1.161
49.905	4.0760000000000005	P_R	1.0	n/a	n/a	1.0	1.0190000000000001	Phon/Phon_run-02/stereo_PR08.wav	1.0	1	0.7690000000000001
53.992	3.5	P_O	1.0	n/a	n/a	1.0	1.274	Phon/Phon_run-02/PC028.wav	1.0	1	1.024
57.494	3.5	P_U	2.0	n/a	n/a	2.0	1.459	Phon/Phon_run-02/stereo_PU27.wav	2.0	1	1.209
60.997	3.819	P_C	1.0	n/a	n/a	1.0	1.609	Phon/Phon_run-02/ContS06.wav	1.0	1	2.359
64.817	4.25	P_O	1.0	n/a	n/a	1.0	1.406	Phon/Phon_run-02/PC031.wav	1.0	1	1.156
69.07	3.662	P_C	1.0	n/a	n/a	1.0	1.995	Phon/Phon_run-02/ContS36.wav	1.0	1	2.745
72.74	3.823	P_O	1.0	n/a	n/a	1.0	1.7630000000000001	Phon/Phon_run-02/PC023.wav	1.0	1	1.5130000000000001
76.57600000000002	4.323	P_C	1.0	n/a	n/a	1.0	1.443	Phon/Phon_run-02/ContS24.wav	1.0	1	2.193
80.913	3.865	P_U	2.0	n/a	n/a	2.0	1.42	Phon/Phon_run-02/PM004.wav	2.0	1	1.17
84.78200000000002	3.875	P_O	1.0	n/a	n/a	1.0	1.196	Phon/Phon_run-02/PC007.wav	1.0	1	0.946
88.669	4.25	P_U	2.0	n/a	n/a	1.0	1.5130000000000001	Phon/Phon_run-02/PM011.wav	1.0	0	1.2630000000000001
92.92200000000001	4.362	P_C	1.0	n/a	n/a	1.0	1.895	Phon/Phon_run-02/ContS30.wav	1.0	1	2.645
97.292	3.875	P_O	1.0	n/a	n/a	1.0	2.095	Phon/Phon_run-02/PC030.wav	1.0	1	1.8450000000000002
101.178	3.3360000000000003	P_R	1.0	n/a	n/a	1.0	1.263	Phon/Phon_run-02/stereo_PR05.wav	1.0	1	1.013
104.514	4.113	P_U	2.0	n/a	n/a	2.0	1.3090000000000002	Phon/Phon_run-02/stereo_PU01.wav	2.0	1	1.0590000000000002
108.634	4.1739999999999995	P_U	2.0	n/a	n/a	2.0	1.54	Phon/Phon_run-02/PM029.wav	2.0	1	1.29
112.821	3.4539999999999997	P_C	1.0	n/a	n/a	1.0	1.281	Phon/Phon_run-02/ContS08.wav	1.0	1	2.0309999999999997
116.29	3.446	P_R	1.0	n/a	n/a	1.0	1.2590000000000001	Phon/Phon_run-02/stereo_PR30.wav	1.0	1	1.0090000000000001
119.743	3.85	P_R	1.0	n/a	n/a	1.0	1.151	Phon/Phon_run-02/stereo_PR07.wav	1.0	1	0.901
123.596	3.438	P_U	2.0	n/a	n/a	2.0	1.143	Phon/Phon_run-02/stereo_PU02.wav	2.0	1	0.893
127.04799999999999	3.915	P_C	1.0	n/a	n/a	1.0	1.723	Phon/Phon_run-02/ContS20.wav	1.0	1	2.473
130.968	3.487	P_U	2.0	n/a	n/a	2.0	1.547	Phon/Phon_run-02/PM021.wav	2.0	1	1.297
134.471	3.965	P_C	1.0	n/a	n/a	1.0	1.345	Phon/Phon_run-02/ContS26.wav	1.0	1	2.0949999999999998
138.44	3.792	P_R	1.0	n/a	n/a	1.0	1.258	Phon/Phon_run-02/stereo_PR31.wav	1.0	1	1.008
142.243	4.135	P_O	1.0	n/a	n/a	1.0	1.63	Phon/Phon_run-02/PC024.wav	1.0	1	1.38
146.38	3.875	P_U	2.0	n/a	n/a	2.0	1.493	Phon/Phon_run-02/PM010.wav	2.0	1	1.243
150.266	3.875	P_O	1.0	n/a	n/a	2.0	1.6640000000000001	Phon/Phon_run-02/PC015.wav	2.0	0	1.4140000000000001
154.15200000000004	4.245	P_C	1.0	n/a	n/a	1.0	1.554	Phon/Phon_run-02/ContS14.wav	1.0	1	2.3040000000000003
158.406	3.854	P_R	1.0	n/a	n/a	1.0	1.169	Phon/Phon_run-02/stereo_PR14.wav	1.0	1	0.919
162.275	4.239	P_O	1.0	n/a	n/a	1.0	1.216	Phon/Phon_run-02/PC008.wav	1.0	1	0.966
166.52900000000002	4.25	P_U	2.0	n/a	n/a	2.0	1.5719999999999998	Phon/Phon_run-02/stereo_PU11.wav	2.0	1	1.3219999999999998
170.782	3.523	P_C	1.0	n/a	n/a	1.0	1.449	Phon/Phon_run-02/ContS18.wav	1.0	1	2.199
174.31799999999996	3.429	P_O	1.0	n/a	n/a	1.0	1.262	Phon/Phon_run-02/PC006.wav	1.0	1	1.012
177.75400000000005	4.18	P_R	1.0	n/a	n/a	1.0	1.1640000000000001	Phon/Phon_run-02/stereo_PR32.wav	1.0	1	0.9140000000000001
181.94099999999997	4.104	P_R	1.0	n/a	n/a	1.0	1.6340000000000001	Phon/Phon_run-02/stereo_PR24.wav	1.0	1	1.3840000000000001
