onset	duration	trial_type	correct	window1_response	window1_RT	window2_response	window2_RT	stim_file	calculated_response	calculated_accuracy	calculated_RT
1.067	3.4539999999999997	P_R	1.0	n/a	n/a	1.0	1.25	Phon/Phon_run-01/stereo_PR01.wav	1.0	1	1.0
4.537	3.767	P_O	1.0	n/a	n/a	1.0	1.173	Phon/Phon_run-01/PC018.wav	1.0	1	0.923
8.306000000000001	3.391	P_O	1.0	n/a	n/a	2.0	1.143	Phon/Phon_run-01/PC009.wav	2.0	0	0.893
11.709000000000001	4.374	P_C	1.0	n/a	n/a	1.0	0.243	Phon/Phon_run-01/ContS11.wav	1.0	1	0.993
16.096	3.345	P_U	2.0	n/a	n/a	2.0	1.128	Phon/Phon_run-01/PM002.wav	2.0	1	0.8779999999999999
19.448	4.4510000000000005	P_C	1.0	n/a	n/a	1.0	0.34	Phon/Phon_run-01/ContS21.wav	1.0	1	1.09
23.90199999999999	4.382	P_O	1.0	n/a	n/a	1.0	1.4269999999999998	Phon/Phon_run-01/PC005.wav	1.0	1	1.1769999999999998
28.288	3.3	P_U	2.0	n/a	n/a	2.0	1.281	Phon/Phon_run-01/stereo_PU26.wav	2.0	1	1.031
31.590999999999998	4.324	P_C	1.0	n/a	n/a	1.0	0.54	Phon/Phon_run-01/ContS03.wav	1.0	1	1.29
35.92800000000001	4.378	P_R	1.0	n/a	n/a	1.0	1.131	Phon/Phon_run-01/stereo_PR29.wav	1.0	1	0.881
40.314	3.4810000000000003	P_U	2.0	n/a	n/a	2.0	1.148	Phon/Phon_run-01/PM020.wav	2.0	1	0.8979999999999999
43.8	4.393	P_O	1.0	n/a	n/a	1.0	1.482	Phon/Phon_run-01/PC027.wav	1.0	1	1.232
48.20399999999999	4.4	P_R	1.0	n/a	n/a	1.0	1.2590000000000001	Phon/Phon_run-01/stereo_PR11.wav	1.0	1	1.0090000000000001
52.607	3.884	P_C	1.0	n/a	n/a	1.0	0.12	Phon/Phon_run-01/ContS05.wav	1.0	1	0.87
56.494	3.891	P_U	2.0	n/a	n/a	2.0	1.429	Phon/Phon_run-01/stereo_PU28.wav	2.0	1	1.179
60.397	4.4	P_O	1.0	n/a	n/a	1.0	1.213	Phon/Phon_run-01/PC013.wav	1.0	1	0.9630000000000001
64.8	3.513	P_C	1.0	n/a	n/a	1.0	0.14800000000000002	Phon/Phon_run-01/ContS17.wav	1.0	1	0.898
68.319	4.4	P_U	2.0	n/a	n/a	2.0	1.71	Phon/Phon_run-01/PM027.wav	2.0	1	1.46
72.723	4.4	P_O	1.0	n/a	n/a	1.0	1.454	Phon/Phon_run-01/PC021.wav	1.0	1	1.204
77.126	4.496	P_C	1.0	n/a	n/a	1.0	0.6829999999999999	Phon/Phon_run-01/ContS29.wav	1.0	1	1.4329999999999998
81.63	3.3680000000000003	P_R	1.0	n/a	n/a	1.0	1.176	Phon/Phon_run-01/stereo_PR25.wav	1.0	1	0.9259999999999999
84.999	3.95	P_O	1.0	n/a	n/a	1.0	1.531	Phon/Phon_run-01/PC012.wav	1.0	1	1.281
88.95200000000001	3.95	P_U	2.0	n/a	n/a	2.0	1.278	Phon/Phon_run-01/PM003.wav	2.0	1	1.028
92.905	3.939	P_O	1.0	n/a	n/a	1.0	1.3630000000000002	Phon/Phon_run-01/PC004.wav	1.0	1	1.1130000000000002
96.85799999999999	3.59	P_C	1.0	n/a	n/a	1.0	0.314	Phon/Phon_run-01/ContS27.wav	1.0	1	1.064
100.461	4.296	P_U	2.0	n/a	n/a	2.0	1.4780000000000002	Phon/Phon_run-01/stereo_PU21.wav	2.0	1	1.2280000000000002
104.764	3.862	P_R	1.0	n/a	n/a	1.0	1.3090000000000002	Phon/Phon_run-01/stereo_PR26.wav	1.0	1	1.0590000000000002
108.634	3.95	P_O	1.0	n/a	n/a	1.0	1.883	Phon/Phon_run-01/PC026.wav	1.0	1	1.633
112.587	3.5	P_O	1.0	n/a	n/a	1.0	1.205	Phon/Phon_run-01/PC025.wav	1.0	1	0.9550000000000001
116.09	4.013	P_C	1.0	n/a	n/a	1.0	0.085	Phon/Phon_run-01/ContS23.wav	1.0	1	0.835
120.109	3.792	P_R	1.0	n/a	n/a	2.0	1.556	Phon/Phon_run-01/stereo_PR18.wav	2.0	0	1.306
123.912	3.346	P_U	2.0	n/a	n/a	2.0	1.479	Phon/Phon_run-01/stereo_PU19.wav	2.0	1	1.229
127.265	3.891	P_R	1.0	n/a	n/a	1.0	1.3130000000000002	Phon/Phon_run-01/stereo_PR03.wav	1.0	1	1.0630000000000002
131.168	3.355	P_O	1.0	n/a	n/a	1.0	1.335	Phon/Phon_run-01/PC003.wav	1.0	1	1.085
134.537	3.951	P_C	1.0	n/a	n/a	1.0	0.184	Phon/Phon_run-01/ContS15.wav	1.0	1	0.9339999999999999
138.49	3.74	P_U	2.0	n/a	n/a	2.0	1.16	Phon/Phon_run-01/stereo_PU16.wav	2.0	1	0.9099999999999999
142.243	3.95	P_R	1.0	n/a	n/a	1.0	1.212	Phon/Phon_run-01/stereo_PR10.wav	1.0	1	0.962
146.196	3.464	P_C	1.0	n/a	n/a	1.0	0.203	Phon/Phon_run-01/ContS09.wav	1.0	1	0.9530000000000001
149.666	4.275	P_R	1.0	n/a	n/a	1.0	1.069	Phon/Phon_run-01/stereo_PR04.wav	1.0	1	0.819
153.952	3.95	P_U	2.0	n/a	n/a	2.0	1.548	Phon/Phon_run-01/PM023.wav	2.0	1	1.298
157.905	4.4	P_U	2.0	n/a	n/a	1.0	1.219	Phon/Phon_run-01/PM001.wav	1.0	0	0.9690000000000001
162.309	3.665	P_C	1.0	n/a	n/a	1.0	0.256	Phon/Phon_run-01/ContS35.wav	1.0	1	1.006
165.97799999999995	3.463	P_O	1.0	n/a	n/a	1.0	1.1840000000000002	Phon/Phon_run-01/PC017.wav	1.0	1	0.9340000000000002
169.44799999999995	4.332	P_R	1.0	n/a	n/a	1.0	1.367	Phon/Phon_run-01/stereo_PR19.wav	1.0	1	1.117
173.78400000000005	4.083	P_C	1.0	n/a	n/a	1.0	0.08900000000000001	Phon/Phon_run-01/ContS33.wav	1.0	1	0.839
177.87099999999995	3.5	P_R	1.0	n/a	n/a	1.0	1.3659999999999999	Phon/Phon_run-01/stereo_PR17.wav	1.0	1	1.1159999999999999
181.373	4.2669999999999995	P_U	2.0	n/a	n/a	2.0	1.445	Phon/Phon_run-01/PM009.wav	2.0	1	1.195
185.643	3.4389999999999996	P_R	1.0	n/a	n/a	1.0	1.266	Phon/Phon_run-01/stereo_PR09.wav	1.0	1	1.016
