onset	duration	trial_type	correct	window1_response	window1_RT	window2_response	window2_RT	stim_file	calculated_response	calculated_accuracy	calculated_RT
1.0925	3.4539999999999997	P_R	1.0	n/a	n/a	1.0	1.275	Phon/Phon_run-01/stereo_PR01.wav	1.0	1	1.025
4.5615	3.767	P_O	1.0	n/a	n/a	1.0	1.425	Phon/Phon_run-01/PC018.wav	1.0	1	1.175
8.3317	3.391	P_O	1.0	n/a	n/a	2.0	0.983	Phon/Phon_run-01/PC009.wav	2.0	0	0.733
11.7341	4.374	P_C	1.0	n/a	n/a	1.0	1.3090000000000002	Phon/Phon_run-01/ContS11.wav	1.0	1	2.059
16.1207	3.345	P_U	2.0	n/a	n/a	2.0	0.995	Phon/Phon_run-01/PM002.wav	2.0	1	0.745
19.473	4.4510000000000005	P_C	1.0	n/a	n/a	1.0	1.814	Phon/Phon_run-01/ContS21.wav	1.0	1	2.564
23.9275	4.382	P_O	1.0	n/a	n/a	1.0	1.798	Phon/Phon_run-01/PC005.wav	1.0	1	1.548
28.314	3.3	P_U	2.0	n/a	n/a	2.0	1.234	Phon/Phon_run-01/stereo_PU26.wav	2.0	1	0.984
31.6165	4.324	P_C	1.0	n/a	n/a	1.0	1.68	Phon/Phon_run-01/ContS03.wav	1.0	1	2.4299999999999997
35.9529	4.378	P_R	1.0	n/a	n/a	1.0	1.304	Phon/Phon_run-01/stereo_PR29.wav	1.0	1	1.054
40.3393	3.4810000000000003	P_U	2.0	n/a	n/a	1.0	1.091	Phon/Phon_run-01/PM020.wav	1.0	0	0.841
43.8252	4.393	P_O	1.0	n/a	n/a	1.0	1.8019999999999998	Phon/Phon_run-01/PC027.wav	1.0	1	1.5519999999999998
48.2284	4.4	P_R	1.0	n/a	n/a	1.0	1.433	Phon/Phon_run-01/stereo_PR11.wav	1.0	1	1.183
52.6316	3.884	P_C	1.0	n/a	n/a	1.0	2.266	Phon/Phon_run-01/ContS05.wav	1.0	1	3.016
56.5186	3.891	P_U	2.0	n/a	n/a	2.0	1.589	Phon/Phon_run-01/stereo_PU28.wav	2.0	1	1.339
60.4213	4.4	P_O	1.0	n/a	n/a	1.0	1.286	Phon/Phon_run-01/PC013.wav	1.0	1	1.036
64.8247	3.513	P_C	1.0	n/a	n/a	1.0	1.936	Phon/Phon_run-01/ContS17.wav	1.0	1	2.686
68.3439	4.4	P_U	2.0	n/a	n/a	2.0	1.141	Phon/Phon_run-01/PM027.wav	2.0	1	0.891
72.7471	4.4	P_O	1.0	n/a	n/a	1.0	1.143	Phon/Phon_run-01/PC021.wav	1.0	1	0.893
77.1504	4.496	P_C	1.0	n/a	n/a	1.0	1.518	Phon/Phon_run-01/ContS29.wav	1.0	1	2.268
81.6536	3.3680000000000003	P_R	1.0	n/a	n/a	1.0	1.864	Phon/Phon_run-01/stereo_PR25.wav	1.0	1	1.614
85.0239	3.95	P_O	1.0	n/a	n/a	1.0	1.5719999999999998	Phon/Phon_run-01/PC012.wav	1.0	1	1.3219999999999998
88.9768	3.95	P_U	2.0	n/a	n/a	1.0	1.781	Phon/Phon_run-01/PM003.wav	1.0	0	1.531
92.9297	3.939	P_O	1.0	n/a	n/a	1.0	1.6440000000000001	Phon/Phon_run-01/PC004.wav	1.0	1	1.3940000000000001
96.8826	3.59	P_C	1.0	n/a	n/a	1.0	2.153	Phon/Phon_run-01/ContS27.wav	1.0	1	2.903
100.4851	4.296	P_U	2.0	n/a	n/a	2.0	1.4	Phon/Phon_run-01/stereo_PU21.wav	2.0	1	1.15
104.7882	3.862	P_R	1.0	n/a	n/a	2.0	1.4409999999999998	Phon/Phon_run-01/stereo_PR26.wav	2.0	0	1.1909999999999998
108.6576	3.95	P_O	1.0	n/a	n/a	2.0	2.032	Phon/Phon_run-01/PC026.wav	2.0	0	1.782
112.6107	3.5	P_O	1.0	n/a	n/a	1.0	1.51	Phon/Phon_run-01/PC025.wav	1.0	1	1.26
116.1133	4.013	P_C	1.0	n/a	n/a	1.0	1.4240000000000002	Phon/Phon_run-01/ContS23.wav	1.0	1	2.1740000000000004
120.1329	3.792	P_R	1.0	n/a	n/a	2.0	1.551	Phon/Phon_run-01/stereo_PR18.wav	2.0	0	1.301
123.9359	3.346	P_U	2.0	n/a	n/a	1.0	1.203	Phon/Phon_run-01/stereo_PU19.wav	1.0	0	0.9530000000000001
127.2885	3.891	P_R	1.0	n/a	n/a	1.0	1.218	Phon/Phon_run-01/stereo_PR03.wav	1.0	1	0.968
131.1913	3.355	P_O	1.0	n/a	n/a	2.0	1.371	Phon/Phon_run-01/PC003.wav	2.0	0	1.121
134.5604	3.951	P_C	1.0	n/a	n/a	1.0	1.205	Phon/Phon_run-01/ContS15.wav	1.0	1	1.955
138.5144	3.74	P_U	2.0	n/a	n/a	2.0	1.037	Phon/Phon_run-01/stereo_PU16.wav	2.0	1	0.7869999999999999
142.2671	3.95	P_R	1.0	n/a	n/a	1.0	1.376	Phon/Phon_run-01/stereo_PR10.wav	1.0	1	1.126
146.22	3.464	P_C	1.0	n/a	n/a	1.0	0.826	Phon/Phon_run-01/ContS09.wav	1.0	1	1.576
149.6892	4.275	P_R	1.0	n/a	n/a	1.0	1.35	Phon/Phon_run-01/stereo_PR04.wav	1.0	1	1.1
153.9756	3.95	P_U	2.0	n/a	n/a	2.0	1.117	Phon/Phon_run-01/PM023.wav	2.0	1	0.867
157.9284	4.4	P_U	2.0	n/a	n/a	1.0	1.025	Phon/Phon_run-01/PM001.wav	1.0	0	0.7749999999999999
162.3319	3.665	P_C	1.0	n/a	n/a	1.0	1.198	Phon/Phon_run-01/ContS35.wav	1.0	1	1.948
166.0011	3.463	P_O	1.0	n/a	n/a	1.0	1.5859999999999999	Phon/Phon_run-01/PC017.wav	1.0	1	1.3359999999999999
169.4703	4.332	P_R	1.0	n/a	n/a	1.0	1.2570000000000001	Phon/Phon_run-01/stereo_PR19.wav	1.0	1	1.0070000000000001
173.8067	4.083	P_C	1.0	n/a	n/a	1.0	1.253	Phon/Phon_run-01/ContS33.wav	1.0	1	2.003
177.893	3.5	P_R	1.0	n/a	n/a	1.0	1.271	Phon/Phon_run-01/stereo_PR17.wav	1.0	1	1.021
181.3956	4.2669999999999995	P_U	2.0	n/a	n/a	2.0	1.614	Phon/Phon_run-01/PM009.wav	2.0	1	1.364
185.6658	3.4389999999999996	P_R	1.0	n/a	n/a	1.0	1.218	Phon/Phon_run-01/stereo_PR09.wav	1.0	1	0.968
