onset	duration	trial_type	correct	window1_response	window1_RT	window2_response	window2_RT	stim_file	calculated_response	calculated_accuracy	calculated_RT
1.0925	3.4539999999999997	P_R	1.0	n/a	n/a	1.0	1.604	Phon/Phon_run-01/stereo_PR01.wav	1.0	1	1.354
4.5615	3.767	P_O	1.0	n/a	n/a	1.0	1.025	Phon/Phon_run-01/PC018.wav	1.0	1	0.7749999999999999
8.3317	3.391	P_O	1.0	n/a	n/a	2.0	0.948	Phon/Phon_run-01/PC009.wav	2.0	0	0.698
11.7341	4.374	P_C	1.0	n/a	n/a	1.0	0.094	Phon/Phon_run-01/ContS11.wav	1.0	1	0.844
16.1207	3.345	P_U	2.0	n/a	n/a	2.0	1.083	Phon/Phon_run-01/PM002.wav	2.0	1	0.833
19.473	4.4510000000000005	P_C	1.0	n/a	n/a	1.0	0.006999999999999999	Phon/Phon_run-01/ContS21.wav	1.0	1	0.757
23.9275	4.382	P_O	1.0	n/a	n/a	1.0	1.079	Phon/Phon_run-01/PC005.wav	1.0	1	0.829
28.314	3.3	P_U	2.0	n/a	n/a	2.0	1.527	Phon/Phon_run-01/stereo_PU26.wav	2.0	1	1.277
31.6165	4.324	P_C	1.0	1.0	0.6920000000000001	n/a	n/a	Phon/Phon_run-01/ContS03.wav	1.0	1	0.6920000000000001
35.9529	4.378	P_R	1.0	n/a	n/a	2.0	1.071	Phon/Phon_run-01/stereo_PR29.wav	2.0	0	0.821
40.3393	3.4810000000000003	P_U	2.0	n/a	n/a	2.0	1.494	Phon/Phon_run-01/PM020.wav	2.0	1	1.244
43.8252	4.393	P_O	1.0	n/a	n/a	1.0	1.2	Phon/Phon_run-01/PC027.wav	1.0	1	0.95
48.2284	4.4	P_R	1.0	n/a	n/a	1.0	0.948	Phon/Phon_run-01/stereo_PR11.wav	1.0	1	0.698
52.6316	3.884	P_C	1.0	n/a	n/a	1.0	0.042	Phon/Phon_run-01/ContS05.wav	1.0	1	0.792
56.5186	3.891	P_U	2.0	n/a	n/a	2.0	1.229	Phon/Phon_run-01/stereo_PU28.wav	2.0	1	0.9790000000000001
60.4213	4.4	P_O	1.0	n/a	n/a	2.0	1.355	Phon/Phon_run-01/PC013.wav	2.0	0	1.105
64.8247	3.513	P_C	1.0	n/a	n/a	1.0	0.38299999999999995	Phon/Phon_run-01/ContS17.wav	1.0	1	1.133
68.3439	4.4	P_U	2.0	n/a	n/a	2.0	1.249	Phon/Phon_run-01/PM027.wav	2.0	1	0.9990000000000001
72.7471	4.4	P_O	1.0	n/a	n/a	1.0	1.001	Phon/Phon_run-01/PC021.wav	1.0	1	0.7509999999999999
77.1504	4.496	P_C	1.0	n/a	n/a	1.0	0.055	Phon/Phon_run-01/ContS29.wav	1.0	1	0.805
81.6536	3.3680000000000003	P_R	1.0	n/a	n/a	1.0	1.005	Phon/Phon_run-01/stereo_PR25.wav	1.0	1	0.7549999999999999
85.0239	3.95	P_O	1.0	n/a	n/a	1.0	1.138	Phon/Phon_run-01/PC012.wav	1.0	1	0.8879999999999999
88.9768	3.95	P_U	2.0	n/a	n/a	1.0	1.172	Phon/Phon_run-01/PM003.wav	1.0	0	0.9219999999999999
92.9297	3.939	P_O	1.0	n/a	n/a	1.0	1.3159999999999998	Phon/Phon_run-01/PC004.wav	1.0	1	1.0659999999999998
96.8826	3.59	P_C	1.0	n/a	n/a	1.0	0.21600000000000003	Phon/Phon_run-01/ContS27.wav	1.0	1	0.9660000000000001
100.4851	4.296	P_U	2.0	n/a	n/a	2.0	1.598	Phon/Phon_run-01/stereo_PU21.wav	2.0	1	1.348
104.7882	3.862	P_R	1.0	n/a	n/a	1.0	1.361	Phon/Phon_run-01/stereo_PR26.wav	1.0	1	1.111
108.6576	3.95	P_O	1.0	n/a	n/a	1.0	1.136	Phon/Phon_run-01/PC026.wav	1.0	1	0.8859999999999999
112.6107	3.5	P_O	1.0	n/a	n/a	1.0	1.117	Phon/Phon_run-01/PC025.wav	1.0	1	0.867
116.1133	4.013	P_C	1.0	1.0	0.735	n/a	n/a	Phon/Phon_run-01/ContS23.wav	1.0	1	0.735
120.1329	3.792	P_R	1.0	n/a	n/a	1.0	1.311	Phon/Phon_run-01/stereo_PR18.wav	1.0	1	1.061
123.9359	3.346	P_U	2.0	n/a	n/a	2.0	1.081	Phon/Phon_run-01/stereo_PU19.wav	2.0	1	0.831
127.2885	3.891	P_R	1.0	n/a	n/a	1.0	1.1520000000000001	Phon/Phon_run-01/stereo_PR03.wav	1.0	1	0.9019999999999999
131.1913	3.355	P_O	1.0	n/a	n/a	1.0	1.219	Phon/Phon_run-01/PC003.wav	1.0	1	0.9690000000000001
134.5604	3.951	P_C	1.0	1.0	0.741	n/a	n/a	Phon/Phon_run-01/ContS15.wav	1.0	1	0.741
138.5144	3.74	P_U	2.0	n/a	n/a	2.0	1.2329999999999999	Phon/Phon_run-01/stereo_PU16.wav	2.0	1	0.9830000000000001
142.2671	3.95	P_R	1.0	n/a	n/a	1.0	1.306	Phon/Phon_run-01/stereo_PR10.wav	1.0	1	1.056
146.22	3.464	P_C	1.0	n/a	n/a	1.0	1.1340000000000001	Phon/Phon_run-01/ContS09.wav	1.0	1	1.884
149.6892	4.275	P_R	1.0	n/a	n/a	1.0	1.1740000000000002	Phon/Phon_run-01/stereo_PR04.wav	1.0	1	0.9240000000000002
153.9756	3.95	P_U	2.0	n/a	n/a	2.0	1.3980000000000001	Phon/Phon_run-01/PM023.wav	2.0	1	1.148
157.9284	4.4	P_U	2.0	n/a	n/a	2.0	1.828	Phon/Phon_run-01/PM001.wav	2.0	1	1.578
162.3319	3.665	P_C	1.0	n/a	n/a	1.0	0.026000000000000002	Phon/Phon_run-01/ContS35.wav	1.0	1	0.776
166.0011	3.463	P_O	1.0	n/a	n/a	1.0	1.13	Phon/Phon_run-01/PC017.wav	1.0	1	0.8799999999999999
169.4703	4.332	P_R	1.0	n/a	n/a	1.0	1.2329999999999999	Phon/Phon_run-01/stereo_PR19.wav	1.0	1	0.9830000000000001
173.8067	4.083	P_C	1.0	n/a	n/a	1.0	0.41700000000000004	Phon/Phon_run-01/ContS33.wav	1.0	1	1.167
177.893	3.5	P_R	1.0	n/a	n/a	1.0	1.133	Phon/Phon_run-01/stereo_PR17.wav	1.0	1	0.883
181.3956	4.2669999999999995	P_U	2.0	n/a	n/a	2.0	1.166	Phon/Phon_run-01/PM009.wav	2.0	1	0.9159999999999999
185.6658	3.4389999999999996	P_R	1.0	n/a	n/a	1.0	0.997	Phon/Phon_run-01/stereo_PR09.wav	1.0	1	0.747
