onset	duration	trial_type	correct	window1_response	window1_RT	window2_response	window2_RT	stim_file	calculated_response	calculated_accuracy	calculated_RT
1.0924	3.5	P_R	1.0	n/a	n/a	1.0	1.71	Phon/Phon_run-02/stereo_PR20.wav	1.0	1	1.46
4.595	4.235	P_O	1.0	n/a	n/a	2.0	0.96	Phon/Phon_run-02/PC034.wav	2.0	0	0.71
8.8325	3.375	P_R	1.0	n/a	n/a	1.0	1.306	Phon/Phon_run-02/stereo_PR13.wav	1.0	1	1.056
12.2183	3.474	P_C	1.0	n/a	n/a	1.0	0.278	Phon/Phon_run-02/ContS12.wav	1.0	1	1.028
15.7041	3.875	P_U	2.0	n/a	n/a	1.0	1.5619999999999998	Phon/Phon_run-02/PM025.wav	1.0	0	1.3119999999999998
19.5903	3.726	P_R	1.0	n/a	n/a	1.0	1.43	Phon/Phon_run-02/stereo_PR22.wav	1.0	1	1.18
23.3263	3.451	P_O	1.0	n/a	n/a	2.0	1.527	Phon/Phon_run-02/PC014.wav	2.0	0	1.277
26.7799	3.779	P_C	1.0	n/a	n/a	1.0	0.293	Phon/Phon_run-02/ContS02.wav	1.0	1	1.043
30.566	3.821	P_U	2.0	n/a	n/a	1.0	1.554	Phon/Phon_run-02/stereo_PU18.wav	1.0	0	1.304
34.402	3.49	P_U	2.0	n/a	n/a	1.0	1.3519999999999999	Phon/Phon_run-02/stereo_PU12.wav	1.0	0	1.1019999999999999
37.9046	4.38	P_C	1.0	n/a	n/a	1.0	0.879	Phon/Phon_run-02/ContS32.wav	1.0	1	1.629
42.291000000000004	4.0969999999999995	P_R	1.0	n/a	n/a	1.0	1.88	Phon/Phon_run-02/stereo_PR16.wav	1.0	1	1.63
46.394	3.5	P_O	1.0	n/a	n/a	1.0	1.882	Phon/Phon_run-02/PC022.wav	1.0	1	1.632
49.8966	4.0760000000000005	P_R	1.0	n/a	n/a	1.0	1.5490000000000002	Phon/Phon_run-02/stereo_PR08.wav	1.0	1	1.2990000000000002
53.983000000000004	3.5	P_O	1.0	n/a	n/a	1.0	1.6909999999999998	Phon/Phon_run-02/PC028.wav	1.0	1	1.4409999999999998
57.4856	3.5	P_U	2.0	n/a	n/a	2.0	1.545	Phon/Phon_run-02/stereo_PU27.wav	2.0	1	1.295
60.9881	3.819	P_C	1.0	n/a	n/a	1.0	0.634	Phon/Phon_run-02/ContS06.wav	1.0	1	1.384
64.8086	4.25	P_O	1.0	n/a	n/a	2.0	1.839	Phon/Phon_run-02/PC031.wav	2.0	0	1.589
69.062	3.662	P_C	1.0	n/a	n/a	1.0	0.45799999999999996	Phon/Phon_run-02/ContS36.wav	1.0	1	1.208
72.7312	3.823	P_O	1.0	n/a	n/a	1.0	1.61	Phon/Phon_run-02/PC023.wav	1.0	1	1.36
76.5674	4.323	P_C	1.0	n/a	n/a	1.0	1.2930000000000001	Phon/Phon_run-02/ContS24.wav	1.0	1	2.043
80.9038	3.865	P_U	2.0	n/a	n/a	2.0	2.5860000000000003	Phon/Phon_run-02/PM004.wav	2.0	1	2.3360000000000003
84.7733	3.875	P_O	1.0	n/a	n/a	1.0	1.1440000000000001	Phon/Phon_run-02/PC007.wav	1.0	1	0.8940000000000001
88.6594	4.25	P_U	2.0	n/a	n/a	1.0	1.2209999999999999	Phon/Phon_run-02/PM011.wav	1.0	0	0.9709999999999999
92.9126	4.362	P_C	1.0	n/a	n/a	1.0	1.012	Phon/Phon_run-02/ContS30.wav	1.0	1	1.762
97.2825	3.875	P_O	1.0	n/a	n/a	2.0	1.25	Phon/Phon_run-02/PC030.wav	2.0	0	1.0
101.1687	3.3360000000000003	P_R	1.0	n/a	n/a	1.0	2.041	Phon/Phon_run-02/stereo_PR05.wav	1.0	1	1.791
104.5077	4.113	P_U	2.0	n/a	n/a	2.0	1.329	Phon/Phon_run-02/stereo_PU01.wav	2.0	1	1.079
108.6273	4.1739999999999995	P_U	2.0	n/a	n/a	2.0	1.796	Phon/Phon_run-02/PM029.wav	2.0	1	1.546
112.8137	3.4539999999999997	P_C	1.0	n/a	n/a	1.0	0.48700000000000004	Phon/Phon_run-02/ContS08.wav	1.0	1	1.237
116.2828	3.446	P_R	1.0	n/a	n/a	1.0	1.8119999999999998	Phon/Phon_run-02/stereo_PR30.wav	1.0	1	1.5619999999999998
119.7352	3.85	P_R	1.0	n/a	n/a	1.0	1.574	Phon/Phon_run-02/stereo_PR07.wav	1.0	1	1.324
123.588	3.438	P_U	2.0	n/a	n/a	2.0	1.4580000000000002	Phon/Phon_run-02/stereo_PU02.wav	2.0	1	1.2080000000000002
127.0406	3.915	P_C	1.0	n/a	n/a	1.0	0.682	Phon/Phon_run-02/ContS20.wav	1.0	1	1.432
130.9601	3.487	P_U	2.0	n/a	n/a	1.0	1.761	Phon/Phon_run-02/PM021.wav	1.0	0	1.511
134.46200000000002	3.965	P_C	1.0	n/a	n/a	1.0	1.295	Phon/Phon_run-02/ContS26.wav	1.0	1	2.045
138.4315	3.792	P_R	1.0	n/a	n/a	2.0	1.453	Phon/Phon_run-02/stereo_PR31.wav	2.0	0	1.203
142.2343	4.135	P_O	1.0	n/a	n/a	1.0	1.365	Phon/Phon_run-02/PC024.wav	1.0	1	1.115
146.3717	3.875	P_U	2.0	n/a	n/a	1.0	1.8230000000000002	Phon/Phon_run-02/PM010.wav	1.0	0	1.5730000000000002
150.2579	3.875	P_O	1.0	n/a	n/a	1.0	1.4909999999999999	Phon/Phon_run-02/PC015.wav	1.0	1	1.2409999999999999
154.144	4.245	P_C	1.0	n/a	n/a	1.0	0.951	Phon/Phon_run-02/ContS14.wav	1.0	1	1.701
158.3971	3.854	P_R	1.0	n/a	n/a	1.0	1.682	Phon/Phon_run-02/stereo_PR14.wav	1.0	1	1.432
162.2662	4.239	P_O	1.0	n/a	n/a	1.0	1.642	Phon/Phon_run-02/PC008.wav	1.0	1	1.392
166.5192	4.25	P_U	2.0	n/a	n/a	2.0	1.436	Phon/Phon_run-02/stereo_PU11.wav	2.0	1	1.186
170.7726	3.523	P_C	1.0	n/a	n/a	1.0	0.602	Phon/Phon_run-02/ContS18.wav	1.0	1	1.3519999999999999
174.3085	3.429	P_O	1.0	n/a	n/a	1.0	1.238	Phon/Phon_run-02/PC006.wav	1.0	1	0.988
177.7443	4.18	P_R	1.0	n/a	n/a	1.0	1.716	Phon/Phon_run-02/stereo_PR32.wav	1.0	1	1.466
181.9307	4.104	P_R	1.0	n/a	n/a	1.0	1.818	Phon/Phon_run-02/stereo_PR24.wav	1.0	1	1.568
