onset	duration	trial_type	correct	window1_response	window1_RT	window2_response	window2_RT	stim_file	calculated_response	calculated_accuracy	calculated_RT
1.067	3.4539999999999997	P_R	1.0	n/a	n/a	1.0	1.3869999999999998	Phon/Phon_run-01/stereo_PR01.wav	1.0	1	1.1369999999999998
4.5360000000000005	3.767	P_O	1.0	n/a	n/a	1.0	0.8340000000000001	Phon/Phon_run-01/PC018.wav	1.0	1	0.5840000000000001
8.306000000000001	3.391	P_O	1.0	n/a	n/a	1.0	1.265	Phon/Phon_run-01/PC009.wav	1.0	1	1.015
11.708	4.374	P_C	1.0	n/a	n/a	1.0	0.664	Phon/Phon_run-01/ContS11.wav	1.0	1	1.4140000000000001
16.095	3.345	P_U	2.0	n/a	n/a	1.0	1.756	Phon/Phon_run-01/PM002.wav	1.0	0	1.506
19.448	4.4510000000000005	P_C	1.0	n/a	n/a	2.0	0.45799999999999996	Phon/Phon_run-01/ContS21.wav	2.0	0	1.208
23.901	4.382	P_O	1.0	n/a	n/a	1.0	1.541	Phon/Phon_run-01/PC005.wav	1.0	1	1.291
28.288	3.3	P_U	2.0	n/a	n/a	2.0	1.197	Phon/Phon_run-01/stereo_PU26.wav	2.0	1	0.9470000000000001
31.59	4.324	P_C	1.0	n/a	n/a	1.0	0.21	Phon/Phon_run-01/ContS03.wav	1.0	1	0.96
35.927	4.378	P_R	1.0	n/a	n/a	1.0	1.218	Phon/Phon_run-01/stereo_PR29.wav	1.0	1	0.968
40.314	3.4810000000000003	P_U	2.0	n/a	n/a	n/a	n/a	Phon/Phon_run-01/PM020.wav	n/a	0	n/a
43.8	4.393	P_O	1.0	n/a	n/a	2.0	2.142	Phon/Phon_run-01/PC027.wav	2.0	0	1.892
48.203	4.4	P_R	1.0	n/a	n/a	1.0	1.4180000000000001	Phon/Phon_run-01/stereo_PR11.wav	1.0	1	1.168
52.607	3.884	P_C	1.0	n/a	n/a	1.0	0.723	Phon/Phon_run-01/ContS05.wav	1.0	1	1.4729999999999999
56.493	3.891	P_U	2.0	n/a	n/a	2.0	2.042	Phon/Phon_run-01/stereo_PU28.wav	2.0	1	1.7919999999999998
60.396	4.4	P_O	1.0	n/a	n/a	1.0	1.3659999999999999	Phon/Phon_run-01/PC013.wav	1.0	1	1.116
64.79899999999999	3.513	P_C	1.0	n/a	n/a	1.0	0.318	Phon/Phon_run-01/ContS17.wav	1.0	1	1.068
68.319	4.4	P_U	2.0	n/a	n/a	n/a	n/a	Phon/Phon_run-01/PM027.wav	n/a	0	n/a
72.722	4.4	P_O	1.0	n/a	n/a	2.0	1.516	Phon/Phon_run-01/PC021.wav	2.0	0	1.266
77.125	4.496	P_C	1.0	n/a	n/a	1.0	0.67	Phon/Phon_run-01/ContS29.wav	1.0	1	1.42
81.62899999999998	3.3680000000000003	P_R	1.0	n/a	n/a	1.0	1.3430000000000002	Phon/Phon_run-01/stereo_PR25.wav	1.0	1	1.0930000000000002
84.99799999999998	3.95	P_O	1.0	n/a	n/a	1.0	2.029	Phon/Phon_run-01/PC012.wav	1.0	1	1.779
88.95100000000002	3.95	P_U	2.0	n/a	n/a	n/a	n/a	Phon/Phon_run-01/PM003.wav	n/a	0	n/a
92.904	3.939	P_O	1.0	n/a	n/a	2.0	1.7830000000000001	Phon/Phon_run-01/PC004.wav	2.0	0	1.533
96.85700000000001	3.59	P_C	1.0	n/a	n/a	1.0	1.194	Phon/Phon_run-01/ContS27.wav	1.0	1	1.944
100.46	4.296	P_U	2.0	n/a	n/a	2.0	2.037	Phon/Phon_run-01/stereo_PU21.wav	2.0	1	1.787
104.76299999999999	3.862	P_R	1.0	n/a	n/a	1.0	1.584	Phon/Phon_run-01/stereo_PR26.wav	1.0	1	1.334
108.633	3.95	P_O	1.0	n/a	n/a	1.0	1.36	Phon/Phon_run-01/PC026.wav	1.0	1	1.11
112.586	3.5	P_O	1.0	n/a	n/a	1.0	1.074	Phon/Phon_run-01/PC025.wav	1.0	1	0.8240000000000001
116.089	4.013	P_C	1.0	n/a	n/a	1.0	0.653	Phon/Phon_run-01/ContS23.wav	1.0	1	1.403
120.10799999999999	3.792	P_R	1.0	n/a	n/a	1.0	1.5319999999999998	Phon/Phon_run-01/stereo_PR18.wav	1.0	1	1.2819999999999998
123.911	3.346	P_U	2.0	n/a	n/a	2.0	1.329	Phon/Phon_run-01/stereo_PU19.wav	2.0	1	1.079
127.264	3.891	P_R	1.0	n/a	n/a	2.0	1.554	Phon/Phon_run-01/stereo_PR03.wav	2.0	0	1.304
131.167	3.355	P_O	1.0	n/a	n/a	n/a	n/a	Phon/Phon_run-01/PC003.wav	n/a	0	n/a
134.536	3.951	P_C	1.0	2.0	0.168	1.0	0.9009999999999999	Phon/Phon_run-01/ContS15.wav	2.0	0	0.168
138.489	3.74	P_U	2.0	n/a	n/a	n/a	n/a	Phon/Phon_run-01/stereo_PU16.wav	n/a	0	n/a
142.24200000000005	3.95	P_R	1.0	n/a	n/a	1.0	0.958	Phon/Phon_run-01/stereo_PR10.wav	1.0	1	0.708
146.195	3.464	P_C	1.0	n/a	n/a	1.0	0.815	Phon/Phon_run-01/ContS09.wav	1.0	1	1.565
149.664	4.275	P_R	1.0	n/a	n/a	1.0	2.557	Phon/Phon_run-01/stereo_PR04.wav	1.0	1	2.307
153.951	3.95	P_U	2.0	n/a	n/a	2.0	2.119	Phon/Phon_run-01/PM023.wav	2.0	1	1.8690000000000002
157.904	4.4	P_U	2.0	n/a	n/a	1.0	1.892	Phon/Phon_run-01/PM001.wav	1.0	0	1.642
162.30700000000004	3.665	P_C	1.0	n/a	n/a	1.0	0.33299999999999996	Phon/Phon_run-01/ContS35.wav	1.0	1	1.083
165.977	3.463	P_O	1.0	n/a	n/a	n/a	n/a	Phon/Phon_run-01/PC017.wav	1.0	1	3.176
169.446	4.332	P_R	1.0	1.0	0.713	n/a	n/a	Phon/Phon_run-01/stereo_PR19.wav	n/a	0	n/a
173.783	4.083	P_C	1.0	n/a	n/a	1.0	0.514	Phon/Phon_run-01/ContS33.wav	1.0	1	1.264
177.86900000000003	3.5	P_R	1.0	n/a	n/a	1.0	1.355	Phon/Phon_run-01/stereo_PR17.wav	1.0	1	1.105
181.372	4.2669999999999995	P_U	2.0	n/a	n/a	1.0	1.9880000000000002	Phon/Phon_run-01/PM009.wav	1.0	0	1.738
185.642	3.4389999999999996	P_R	1.0	n/a	n/a	1.0	2.039	Phon/Phon_run-01/stereo_PR09.wav	1.0	1	1.7890000000000001
