onset	duration	trial_type	correct	window1_response	window1_RT	window2_response	window2_RT	stim_file	calculated_response	calculated_accuracy	calculated_RT
1.0964	7.034	SP_W	1.0	n/a	n/a	n/a	n/a	Plaus/Plaus_run-01/stereo_PW85.wav	2.0	0	4.174
8.1359	5.641	SP_I	2.0	2.0	0.037000000000000005	2.0	2.3280000000000003	Plaus/Plaus_run-01/stereo_PI11.wav	2.0	1	1.408
13.79	6.77	SP_C	1.0	n/a	n/a	1.0	0.59	Plaus/Plaus_run-01/CoM08b.wav	1.0	1	1.34
20.5628	7.327000000000001	SP_W	1.0	n/a	n/a	1.0	4.386	Plaus/Plaus_run-01/stereo_PW72.wav	1.0	1	2.406
27.9014	6.145	SP_C	1.0	n/a	n/a	2.0	4.891	Plaus/Plaus_run-01/CoM05d.wav	2.0	0	5.641
34.0559	5.181	SP_I	2.0	n/a	n/a	2.0	2.9589999999999996	Plaus/Plaus_run-01/stereo_PI65.wav	2.0	1	2.017
39.243	5.092	SP_S	1.0	n/a	n/a	2.0	2.396	Plaus/Plaus_run-01/stereo_PC13.wav	2.0	0	1.3329999999999995
44.3468	7.355	SP_C	1.0	n/a	n/a	1.0	3.412	Plaus/Plaus_run-01/CoM06l.wav	1.0	1	4.162
51.7032	7.47	SP_I	2.0	n/a	n/a	2.0	4.187	Plaus/Plaus_run-01/stereo_PI90.wav	2.0	1	2.0160000000000005
59.1764	7.399	SP_S	1.0	n/a	n/a	1.0	4.042	Plaus/Plaus_run-01/stereo_PC35.wav	1.0	1	1.775
66.5818	5.685	SP_S	1.0	n/a	n/a	1.0	2.555	Plaus/Plaus_run-01/stereo_PC47.wav	1.0	1	1.546
72.2704	5.669	SP_W	1.0	n/a	n/a	2.0	3.46	Plaus/Plaus_run-01/stereo_PW19.wav	2.0	0	2.454
77.9423	7.9	SP_C	1.0	n/a	n/a	1.0	3.6180000000000003	Plaus/Plaus_run-01/CoM03l.wav	1.0	1	4.368
85.8483	5.145	SP_I	2.0	n/a	n/a	2.0	3.3089999999999997	Plaus/Plaus_run-01/stereo_PI09.wav	2.0	1	2.301
91.0021	6.9170000000000025	SP_W	1.0	n/a	n/a	1.0	5.02	Plaus/Plaus_run-01/stereo_PW30.wav	1.0	1	2.8999999999999995
97.9243	5.738	SP_S	1.0	n/a	n/a	2.0	3.0260000000000002	Plaus/Plaus_run-01/stereo_PC14.wav	2.0	0	1.855
103.6662	6.276	SP_W	1.0	n/a	n/a	2.0	4.496	Plaus/Plaus_run-01/stereo_PW50.wav	2.0	0	3.674
109.954	5.49	SP_C	1.0	n/a	n/a	1.0	1.235	Plaus/Plaus_run-01/CoM03d.wav	1.0	1	1.985
115.458	5.7	SP_I	2.0	n/a	n/a	2.0	3.515	Plaus/Plaus_run-01/stereo_PI67.wav	2.0	1	2.6239999999999997
121.1625	7.237	SP_S	1.0	n/a	n/a	1.0	3.6689999999999996	Plaus/Plaus_run-01/stereo_PC68.wav	1.0	1	1.7029999999999998
128.4022	6.49	SP_C	1.0	n/a	n/a	1.0	2.952	Plaus/Plaus_run-01/CoM03b.wav	1.0	1	3.702
134.9065	6.25	SP_W	1.0	n/a	n/a	2.0	2.369	Plaus/Plaus_run-01/stereo_PW61.wav	2.0	0	1.3890000000000002
141.161	6.952999999999999	SP_I	2.0	n/a	n/a	2.0	4.322	Plaus/Plaus_run-01/stereo_PI32.wav	2.0	1	2.157
148.1173	7.085	SP_C	1.0	n/a	n/a	1.0	3.8739999999999997	Plaus/Plaus_run-01/CoM02e.wav	1.0	1	4.6240000000000006
155.2068	6.3610000000000015	SP_S	1.0	n/a	n/a	1.0	4.245	Plaus/Plaus_run-01/stereo_PC24.wav	1.0	1	1.9869999999999999
161.5781	5.1110000000000015	SP_W	1.0	n/a	n/a	1.0	3.056	Plaus/Plaus_run-01/stereo_PW53.wav	1.0	1	2.0420000000000003
166.6985	6.2860000000000005	SP_I	2.0	n/a	n/a	2.0	4.137	Plaus/Plaus_run-01/stereo_PI42.wav	2.0	1	1.941
172.9876	6.577000000000001	SP_S	1.0	n/a	n/a	1.0	3.0810000000000004	Plaus/Plaus_run-01/stereo_PC57.wav	1.0	1	1.8860000000000003
179.5757	5.273	SP_W	1.0	n/a	n/a	2.0	3.2889999999999997	Plaus/Plaus_run-01/stereo_PW18.wav	2.0	0	2.122
184.8629	5.77	SP_C	1.0	n/a	n/a	1.0	2.371	Plaus/Plaus_run-01/CoM09b.wav	1.0	1	3.1210000000000004
190.6348	6.731	SP_S	1.0	n/a	n/a	1.0	4.782	Plaus/Plaus_run-01/stereo_PC26.wav	1.0	1	2.682
197.3731	7.212999999999999	SP_I	2.0	n/a	n/a	2.0	3.895	Plaus/Plaus_run-01/stereo_PI33.wav	2.0	1	1.912
204.595	5.181	SP_S	1.0	n/a	n/a	1.0	2.398	Plaus/Plaus_run-01/stereo_PC01.wav	1.0	1	1.4570000000000003
209.7821	6.238	SP_S	1.0	n/a	n/a	1.0	3.9160000000000004	Plaus/Plaus_run-01/stereo_PC36.wav	1.0	1	1.87
216.0211	7.73	SP_C	1.0	n/a	n/a	2.0	5.2139999999999995	Plaus/Plaus_run-01/CoM10e.wav	2.0	0	5.9639999999999995
223.7601	6.843	SP_I	2.0	1.0	0.429	1.0	4.622	Plaus/Plaus_run-01/stereo_PI45.wav	1.0	0	2.495
230.615	6.101	SP_W	1.0	n/a	n/a	1.0	4.583	Plaus/Plaus_run-01/stereo_PW28.wav	1.0	1	2.6510000000000002
236.7206	7.419	SP_W	1.0	n/a	n/a	1.0	3.9789999999999996	Plaus/Plaus_run-01/stereo_PW86.wav	1.0	1	1.9430000000000005
244.1438	6.54	SP_C	1.0	n/a	n/a	1.0	4.311	Plaus/Plaus_run-01/CoM05e.wav	1.0	1	5.061
250.6981	6.247000000000001	SP_I	2.0	n/a	n/a	2.0	2.904	Plaus/Plaus_run-01/stereo_PI12.wav	2.0	1	2.033
