onset	duration	trial_type	correct	window1_response	window1_RT	window2_response	window2_RT	stim_file	calculated_response	calculated_accuracy	calculated_RT
1.0924	3.5	P_R	1.0	n/a	n/a	1.0	1.719	Phon/Phon_run-02/stereo_PR20.wav	1.0	1	1.469
4.595	4.235	P_O	1.0	n/a	n/a	1.0	1.16	Phon/Phon_run-02/PC034.wav	1.0	1	0.9099999999999999
8.8325	3.375	P_R	1.0	n/a	n/a	2.0	1.1320000000000001	Phon/Phon_run-02/stereo_PR13.wav	2.0	0	0.8819999999999999
12.2183	3.474	P_C	1.0	n/a	n/a	1.0	1.367	Phon/Phon_run-02/ContS12.wav	1.0	1	2.117
15.7041	3.875	P_U	2.0	n/a	n/a	2.0	1.412	Phon/Phon_run-02/PM025.wav	2.0	1	1.162
19.5903	3.726	P_R	1.0	n/a	n/a	1.0	1.665	Phon/Phon_run-02/stereo_PR22.wav	1.0	1	1.415
23.3263	3.451	P_O	1.0	n/a	n/a	n/a	n/a	Phon/Phon_run-02/PC014.wav	n/a	0	n/a
26.7799	3.779	P_C	1.0	n/a	n/a	1.0	1.788	Phon/Phon_run-02/ContS02.wav	1.0	1	2.5380000000000003
30.566	3.821	P_U	2.0	n/a	n/a	1.0	1.359	Phon/Phon_run-02/stereo_PU18.wav	1.0	0	1.109
34.402	3.49	P_U	2.0	n/a	n/a	2.0	1.78	Phon/Phon_run-02/stereo_PU12.wav	2.0	1	1.53
37.9046	4.38	P_C	1.0	n/a	n/a	1.0	1.663	Phon/Phon_run-02/ContS32.wav	1.0	1	2.4130000000000003
42.291000000000004	4.0969999999999995	P_R	1.0	n/a	n/a	1.0	2.2969999999999997	Phon/Phon_run-02/stereo_PR16.wav	1.0	1	2.047
46.394	3.5	P_O	1.0	n/a	n/a	2.0	1.992	Phon/Phon_run-02/PC022.wav	2.0	0	1.742
49.8966	4.0760000000000005	P_R	1.0	n/a	n/a	2.0	1.556	Phon/Phon_run-02/stereo_PR08.wav	2.0	0	1.306
53.983000000000004	3.5	P_O	1.0	n/a	n/a	1.0	1.906	Phon/Phon_run-02/PC028.wav	1.0	1	1.656
57.4856	3.5	P_U	2.0	n/a	n/a	n/a	n/a	Phon/Phon_run-02/stereo_PU27.wav	n/a	0	n/a
60.9881	3.819	P_C	1.0	2.0	0.012	1.0	1.2009999999999998	Phon/Phon_run-02/ContS06.wav	2.0	0	0.012
64.8086	4.25	P_O	1.0	n/a	n/a	1.0	1.545	Phon/Phon_run-02/PC031.wav	1.0	1	1.295
69.062	3.662	P_C	1.0	n/a	n/a	1.0	1.524	Phon/Phon_run-02/ContS36.wav	1.0	1	2.274
72.7312	3.823	P_O	1.0	n/a	n/a	1.0	2.123	Phon/Phon_run-02/PC023.wav	1.0	1	1.8730000000000002
76.5674	4.323	P_C	1.0	n/a	n/a	1.0	2.059	Phon/Phon_run-02/ContS24.wav	1.0	1	2.809
80.9038	3.865	P_U	2.0	n/a	n/a	2.0	1.669	Phon/Phon_run-02/PM004.wav	2.0	1	1.419
84.7733	3.875	P_O	1.0	n/a	n/a	2.0	2.565	Phon/Phon_run-02/PC007.wav	2.0	0	2.315
88.6594	4.25	P_U	2.0	n/a	n/a	1.0	1.921	Phon/Phon_run-02/PM011.wav	1.0	0	1.671
92.9126	4.362	P_C	1.0	n/a	n/a	2.0	1.689	Phon/Phon_run-02/ContS30.wav	2.0	0	2.439
97.2825	3.875	P_O	1.0	n/a	n/a	1.0	1.561	Phon/Phon_run-02/PC030.wav	1.0	1	1.311
101.1687	3.3360000000000003	P_R	1.0	n/a	n/a	2.0	1.683	Phon/Phon_run-02/stereo_PR05.wav	2.0	0	1.433
104.5077	4.113	P_U	2.0	n/a	n/a	1.0	2.537	Phon/Phon_run-02/stereo_PU01.wav	1.0	0	2.287
108.6273	4.1739999999999995	P_U	2.0	n/a	n/a	2.0	1.2409999999999999	Phon/Phon_run-02/PM029.wav	2.0	1	0.9910000000000001
112.8137	3.4539999999999997	P_C	1.0	n/a	n/a	1.0	1.764	Phon/Phon_run-02/ContS08.wav	1.0	1	2.5140000000000002
116.2828	3.446	P_R	1.0	n/a	n/a	1.0	1.455	Phon/Phon_run-02/stereo_PR30.wav	1.0	1	1.205
119.7352	3.85	P_R	1.0	n/a	n/a	1.0	1.6030000000000002	Phon/Phon_run-02/stereo_PR07.wav	1.0	1	1.3530000000000002
123.588	3.438	P_U	2.0	n/a	n/a	2.0	2.045	Phon/Phon_run-02/stereo_PU02.wav	2.0	1	1.795
127.0406	3.915	P_C	1.0	n/a	n/a	n/a	n/a	Phon/Phon_run-02/ContS20.wav	n/a	0	n/a
130.9601	3.487	P_U	2.0	n/a	n/a	2.0	1.494	Phon/Phon_run-02/PM021.wav	2.0	1	1.244
134.46200000000002	3.965	P_C	1.0	n/a	n/a	1.0	1.319	Phon/Phon_run-02/ContS26.wav	1.0	1	2.069
138.4315	3.792	P_R	1.0	n/a	n/a	2.0	2.374	Phon/Phon_run-02/stereo_PR31.wav	2.0	0	2.124
142.2343	4.135	P_O	1.0	n/a	n/a	1.0	2.7769999999999997	Phon/Phon_run-02/PC024.wav	1.0	1	2.527
146.3717	3.875	P_U	2.0	n/a	n/a	2.0	1.495	Phon/Phon_run-02/PM010.wav	2.0	1	1.245
150.2579	3.875	P_O	1.0	n/a	n/a	2.0	1.6880000000000002	Phon/Phon_run-02/PC015.wav	2.0	0	1.4380000000000002
154.144	4.245	P_C	1.0	n/a	n/a	2.0	1.242	Phon/Phon_run-02/ContS14.wav	2.0	0	1.992
158.3971	3.854	P_R	1.0	n/a	n/a	1.0	2.505	Phon/Phon_run-02/stereo_PR14.wav	1.0	1	2.255
162.2662	4.239	P_O	1.0	n/a	n/a	1.0	1.198	Phon/Phon_run-02/PC008.wav	1.0	1	0.948
166.5192	4.25	P_U	2.0	n/a	n/a	2.0	1.33	Phon/Phon_run-02/stereo_PU11.wav	2.0	1	1.08
170.7726	3.523	P_C	1.0	n/a	n/a	1.0	1.067	Phon/Phon_run-02/ContS18.wav	1.0	1	1.817
174.3085	3.429	P_O	1.0	n/a	n/a	2.0	1.775	Phon/Phon_run-02/PC006.wav	2.0	0	1.525
177.7443	4.18	P_R	1.0	n/a	n/a	2.0	1.7519999999999998	Phon/Phon_run-02/stereo_PR32.wav	2.0	0	1.5019999999999998
181.9307	4.104	P_R	1.0	n/a	n/a	1.0	1.901	Phon/Phon_run-02/stereo_PR24.wav	1.0	1	1.651
