onset	duration	trial_type	correct	window1_response	window1_RT	window2_response	window2_RT	stim_file	calculated_response	calculated_accuracy	calculated_RT
1.068	4.2	S_U	2.0	n/a	n/a	2.0	1.3519999999999999	Sem/Sem_run-01/stereo_1SU41A0.wav	2.0	1	1.102
5.271	3.596	S_C	1.0	n/a	n/a	1.0	0.146	Sem/Sem_run-01/ContS29.wav	1.0	1	0.8959999999999999
8.874	3.425	S_U	2.0	n/a	n/a	2.0	1.4369999999999998	Sem/Sem_run-01/stereo_2SU87A0.wav	2.0	1	1.1869999999999998
12.31	3.933	S_H	1.0	n/a	n/a	1.0	1.115	Sem/Sem_run-01/stereo_1SH13A0.wav	1.0	1	0.865
16.246	4.323	S_H	1.0	n/a	n/a	1.0	1.093	Sem/Sem_run-01/stereo_1SH05A0.wav	1.0	1	0.843
20.583000000000002	4.073	S_C	1.0	n/a	n/a	1.0	0.049	Sem/Sem_run-01/ContS31.wav	1.0	1	0.799
24.669	3.869	S_L	1.0	n/a	n/a	2.0	1.442	Sem/Sem_run-01/stereo_2SL63A0.wav	2.0	0	1.192
28.539	3.75	S_L	1.0	n/a	n/a	2.0	1.4140000000000001	Sem/Sem_run-01/stereo_1SL29A0.wav	2.0	0	1.164
32.292	4.3660000000000005	S_U	2.0	n/a	n/a	2.0	1.29	Sem/Sem_run-01/stereo_2SU78A0.wav	2.0	1	1.04
36.662	3.3	S_L	1.0	n/a	n/a	1.0	1.148	Sem/Sem_run-01/stereo_1SL17A0.wav	1.0	1	0.8979999999999999
39.964	3.884	S_C	1.0	1.0	0.6829999999999999	n/a	n/a	Sem/Sem_run-01/ContS05.wav	1.0	1	0.6829999999999999
43.851000000000006	4.371	S_H	1.0	n/a	n/a	1.0	1.3	Sem/Sem_run-01/stereo_2SH58A0.wav	1.0	1	1.05
48.236999999999995	4.329	S_L	1.0	n/a	n/a	1.0	1.476	Sem/Sem_run-01/stereo_2SL72A0.wav	1.0	1	1.226
52.574	3.94	S_H	1.0	n/a	n/a	1.0	0.873	Sem/Sem_run-01/stereo_2SH57A0.wav	1.0	1	0.623
56.527	4.2	S_U	2.0	n/a	n/a	2.0	1.48	Sem/Sem_run-01/stereo_2SU83A0.wav	2.0	1	1.23
60.73	3.474	S_C	1.0	1.0	0.607	n/a	n/a	Sem/Sem_run-01/ContS11.wav	1.0	1	0.607
64.21600000000001	4.271	S_L	1.0	n/a	n/a	2.0	1.48	Sem/Sem_run-01/stereo_1SL26A0.wav	2.0	0	1.23
68.503	3.91	S_L	1.0	n/a	n/a	1.0	0.887	Sem/Sem_run-01/stereo_1SL25A0.wav	1.0	1	0.637
72.423	4.479	S_C	1.0	1.0	0.62	n/a	n/a	Sem/Sem_run-01/ContS25.wav	1.0	1	0.62
76.90899999999998	3.378	S_U	2.0	n/a	n/a	2.0	1.661	Sem/Sem_run-01/stereo_2SU81A0.wav	2.0	1	1.411
80.295	3.42	S_L	1.0	n/a	n/a	1.0	1.124	Sem/Sem_run-01/stereo_1SL27A0.wav	1.0	1	0.8740000000000001
83.715	4.3439999999999985	S_L	1.0	n/a	n/a	1.0	1.406	Sem/Sem_run-01/stereo_1SL30A0.wav	1.0	1	1.156
88.068	3.909	S_L	1.0	n/a	n/a	1.0	1.423	Sem/Sem_run-01/stereo_2SL71A0.wav	1.0	1	1.173
91.988	3.867	S_H	1.0	n/a	n/a	1.0	1.574	Sem/Sem_run-01/stereo_1SH04A0.wav	1.0	1	1.324
95.85700000000001	3.828	S_U	2.0	n/a	n/a	2.0	1.264	Sem/Sem_run-01/stereo_1SU37A0.wav	2.0	1	1.014
99.694	4.565	S_C	1.0	1.0	0.67	n/a	n/a	Sem/Sem_run-01/ContS35.wav	1.0	1	0.67
104.264	3.3	S_U	2.0	n/a	n/a	2.0	1.1640000000000001	Sem/Sem_run-01/stereo_1SU35A0.wav	2.0	1	0.914
107.566	3.477	S_L	1.0	n/a	n/a	2.0	1.521	Sem/Sem_run-01/stereo_2SL65A0.wav	2.0	0	1.271
111.052	3.83	S_H	1.0	n/a	n/a	1.0	1.048	Sem/Sem_run-01/stereo_1SH07A0.wav	1.0	1	0.7979999999999999
114.889	4.3439999999999985	S_C	1.0	1.0	0.539	n/a	n/a	Sem/Sem_run-01/ContS07.wav	1.0	1	0.539
119.242	3.5	S_H	1.0	n/a	n/a	1.0	1.141	Sem/Sem_run-01/stereo_1SH03A0.wav	1.0	1	0.8909999999999999
122.745	3.919	S_U	2.0	n/a	n/a	2.0	1.42	Sem/Sem_run-01/stereo_1SU45A0.wav	2.0	1	1.17
126.664	3.5	S_H	1.0	n/a	n/a	1.0	1.128	Sem/Sem_run-01/stereo_1SH06A0.wav	1.0	1	0.8779999999999999
130.167	3.392	S_L	1.0	n/a	n/a	1.0	1.17	Sem/Sem_run-01/stereo_2SL62A0.wav	1.0	1	0.92
133.57	3.54	S_C	1.0	1.0	0.675	n/a	n/a	Sem/Sem_run-01/ContS19.wav	1.0	1	0.675
137.122	4.4	S_H	1.0	1.0	0.28600000000000003	1.0	0.932	Sem/Sem_run-01/stereo_1SH15A0.wav	1.0	1	0.682
141.526	3.342	S_H	1.0	n/a	n/a	2.0	1.537	Sem/Sem_run-01/stereo_1SH11A0.wav	2.0	0	1.287
144.878	3.385	S_U	2.0	n/a	n/a	2.0	1.33	Sem/Sem_run-01/stereo_1SU44A0.wav	2.0	1	1.08
148.264	3.4160000000000004	S_H	1.0	n/a	n/a	2.0	1.423	Sem/Sem_run-01/stereo_2SH56A0.wav	2.0	0	1.173
151.683	3.849	S_U	2.0	n/a	n/a	2.0	1.492	Sem/Sem_run-01/stereo_2SU82A0.wav	2.0	1	1.242
155.536	3.934	S_C	1.0	1.0	0.608	n/a	n/a	Sem/Sem_run-01/ContS13.wav	1.0	1	0.608
159.47299999999996	4.309	S_L	1.0	n/a	n/a	1.0	1.048	Sem/Sem_run-01/stereo_2SL64A0.wav	1.0	1	0.7979999999999999
163.793	4.413	S_C	1.0	1.0	0.54	n/a	n/a	Sem/Sem_run-01/ContS17.wav	1.0	1	0.54
168.213	4.2	S_U	2.0	n/a	n/a	2.0	1.284	Sem/Sem_run-01/stereo_2SU90A0.wav	2.0	1	1.034
172.416	3.846	S_U	2.0	n/a	n/a	2.0	1.137	Sem/Sem_run-01/stereo_2SU88A0.wav	2.0	1	0.887
176.269	3.3939999999999997	S_C	1.0	1.0	0.62	n/a	n/a	Sem/Sem_run-01/ContS01.wav	1.0	1	0.62
179.672	4.013	S_C	1.0	1.0	0.45	n/a	n/a	Sem/Sem_run-01/ContS23.wav	1.0	1	0.45
183.69099999999997	4.227	S_H	1.0	n/a	n/a	1.0	0.997	Sem/Sem_run-01/stereo_1SH08A0.wav	1.0	1	0.747
