onset	duration	trial_type	correct	window1_response	window1_RT	window2_response	window2_RT	stim_file	calculated_response	calculated_accuracy	calculated_RT
1.0924	3.5	P_R	1.0	n/a	n/a	1.0	2.108	Phon/Phon_run-02/stereo_PR20.wav	1.0	1	1.858
4.595	4.235	P_O	1.0	n/a	n/a	1.0	1.5759999999999998	Phon/Phon_run-02/PC034.wav	1.0	1	1.3259999999999998
8.8325	3.375	P_R	1.0	n/a	n/a	1.0	1.7930000000000001	Phon/Phon_run-02/stereo_PR13.wav	1.0	1	1.543
12.2183	3.474	P_C	1.0	n/a	n/a	1.0	0.276	Phon/Phon_run-02/ContS12.wav	1.0	1	1.026
15.7041	3.875	P_U	2.0	n/a	n/a	1.0	2.082	Phon/Phon_run-02/PM025.wav	1.0	0	1.8319999999999999
19.5903	3.726	P_R	1.0	n/a	n/a	1.0	1.744	Phon/Phon_run-02/stereo_PR22.wav	1.0	1	1.494
23.3263	3.451	P_O	1.0	n/a	n/a	1.0	1.911	Phon/Phon_run-02/PC014.wav	1.0	1	1.661
26.7799	3.779	P_C	1.0	n/a	n/a	1.0	0.638	Phon/Phon_run-02/ContS02.wav	1.0	1	1.388
30.566	3.821	P_U	2.0	n/a	n/a	2.0	1.5090000000000001	Phon/Phon_run-02/stereo_PU18.wav	2.0	1	1.259
34.402	3.49	P_U	2.0	n/a	n/a	2.0	1.982	Phon/Phon_run-02/stereo_PU12.wav	2.0	1	1.732
37.9046	4.38	P_C	1.0	n/a	n/a	1.0	0.556	Phon/Phon_run-02/ContS32.wav	1.0	1	1.306
42.291000000000004	4.0969999999999995	P_R	1.0	n/a	n/a	1.0	1.64	Phon/Phon_run-02/stereo_PR16.wav	1.0	1	1.39
46.394	3.5	P_O	1.0	n/a	n/a	n/a	n/a	Phon/Phon_run-02/PC022.wav	n/a	0	n/a
49.8966	4.0760000000000005	P_R	1.0	n/a	n/a	2.0	1.409	Phon/Phon_run-02/stereo_PR08.wav	2.0	0	1.159
53.983000000000004	3.5	P_O	1.0	n/a	n/a	n/a	n/a	Phon/Phon_run-02/PC028.wav	1.0	1	3.0440000000000005
57.4856	3.5	P_U	2.0	1.0	0.544	2.0	1.959	Phon/Phon_run-02/stereo_PU27.wav	2.0	1	1.709
60.9881	3.819	P_C	1.0	n/a	n/a	1.0	0.478	Phon/Phon_run-02/ContS06.wav	1.0	1	1.228
64.8086	4.25	P_O	1.0	n/a	n/a	1.0	1.367	Phon/Phon_run-02/PC031.wav	1.0	1	1.117
69.062	3.662	P_C	1.0	n/a	n/a	1.0	0.95	Phon/Phon_run-02/ContS36.wav	1.0	1	1.7
72.7312	3.823	P_O	1.0	n/a	n/a	1.0	2.275	Phon/Phon_run-02/PC023.wav	1.0	1	2.025
76.5674	4.323	P_C	1.0	n/a	n/a	1.0	0.971	Phon/Phon_run-02/ContS24.wav	1.0	1	1.721
80.9038	3.865	P_U	2.0	n/a	n/a	2.0	2.6439999999999997	Phon/Phon_run-02/PM004.wav	2.0	1	2.394
84.7733	3.875	P_O	1.0	n/a	n/a	1.0	2.416	Phon/Phon_run-02/PC007.wav	1.0	1	2.166
88.6594	4.25	P_U	2.0	n/a	n/a	2.0	1.9769999999999999	Phon/Phon_run-02/PM011.wav	2.0	1	1.727
92.9126	4.362	P_C	1.0	n/a	n/a	1.0	1.508	Phon/Phon_run-02/ContS30.wav	1.0	1	2.258
97.2825	3.875	P_O	1.0	n/a	n/a	2.0	2.092	Phon/Phon_run-02/PC030.wav	2.0	0	1.842
101.1687	3.3360000000000003	P_R	1.0	n/a	n/a	1.0	2.029	Phon/Phon_run-02/stereo_PR05.wav	1.0	1	1.779
104.5077	4.113	P_U	2.0	n/a	n/a	2.0	1.5630000000000002	Phon/Phon_run-02/stereo_PU01.wav	2.0	1	1.3130000000000002
108.6273	4.1739999999999995	P_U	2.0	n/a	n/a	2.0	2.2359999999999998	Phon/Phon_run-02/PM029.wav	2.0	1	1.9860000000000002
112.8137	3.4539999999999997	P_C	1.0	n/a	n/a	1.0	0.929	Phon/Phon_run-02/ContS08.wav	1.0	1	1.679
116.2828	3.446	P_R	1.0	n/a	n/a	n/a	n/a	Phon/Phon_run-02/stereo_PR30.wav	n/a	0	n/a
119.7352	3.85	P_R	1.0	n/a	n/a	1.0	1.2819999999999998	Phon/Phon_run-02/stereo_PR07.wav	1.0	1	1.0319999999999998
123.588	3.438	P_U	2.0	n/a	n/a	2.0	2.0469999999999997	Phon/Phon_run-02/stereo_PU02.wav	2.0	1	1.7970000000000002
127.0406	3.915	P_C	1.0	n/a	n/a	1.0	0.11800000000000001	Phon/Phon_run-02/ContS20.wav	1.0	1	0.868
130.9601	3.487	P_U	2.0	n/a	n/a	2.0	1.8880000000000001	Phon/Phon_run-02/PM021.wav	2.0	1	1.638
134.46200000000002	3.965	P_C	1.0	n/a	n/a	1.0	0.657	Phon/Phon_run-02/ContS26.wav	1.0	1	1.407
138.4315	3.792	P_R	1.0	n/a	n/a	n/a	n/a	Phon/Phon_run-02/stereo_PR31.wav	n/a	0	n/a
142.2343	4.135	P_O	1.0	n/a	n/a	1.0	2.641	Phon/Phon_run-02/PC024.wav	1.0	1	2.391
146.3717	3.875	P_U	2.0	n/a	n/a	2.0	1.8159999999999998	Phon/Phon_run-02/PM010.wav	2.0	1	1.566
150.2579	3.875	P_O	1.0	n/a	n/a	1.0	1.831	Phon/Phon_run-02/PC015.wav	1.0	1	1.581
154.144	4.245	P_C	1.0	n/a	n/a	1.0	0.7190000000000001	Phon/Phon_run-02/ContS14.wav	1.0	1	1.469
158.3971	3.854	P_R	1.0	n/a	n/a	1.0	2.4419999999999997	Phon/Phon_run-02/stereo_PR14.wav	1.0	1	2.192
162.2662	4.239	P_O	1.0	n/a	n/a	1.0	2.479	Phon/Phon_run-02/PC008.wav	1.0	1	2.229
166.5192	4.25	P_U	2.0	n/a	n/a	2.0	1.82	Phon/Phon_run-02/stereo_PU11.wav	2.0	1	1.57
170.7726	3.523	P_C	1.0	n/a	n/a	1.0	0.948	Phon/Phon_run-02/ContS18.wav	1.0	1	1.698
174.3085	3.429	P_O	1.0	n/a	n/a	n/a	n/a	Phon/Phon_run-02/PC006.wav	1.0	1	3.343
177.7443	4.18	P_R	1.0	n/a	n/a	1.0	0.16399999999999998	Phon/Phon_run-02/stereo_PR32.wav	n/a	0	n/a
181.9307	4.104	P_R	1.0	n/a	n/a	1.0	1.68	Phon/Phon_run-02/stereo_PR24.wav	1.0	1	1.43
