onset	duration	trial_type	correct	window1_response	window1_RT	window2_response	window2_RT	stim_file	calculated_response	calculated_accuracy	calculated_RT
1.084	3.4539999999999997	P_R	1.0	n/a	n/a	1.0	1.3880000000000001	Phon/Phon_run-01/stereo_PR01.wav	1.0	1	1.138
4.553	3.767	P_O	1.0	n/a	n/a	1.0	1.161	Phon/Phon_run-01/PC018.wav	1.0	1	0.911
8.323	3.391	P_O	1.0	n/a	n/a	2.0	1.415	Phon/Phon_run-01/PC009.wav	2.0	0	1.165
11.725	4.374	P_C	1.0	n/a	n/a	1.0	1.1420000000000001	Phon/Phon_run-01/ContS11.wav	1.0	1	1.892
16.112000000000002	3.345	P_U	2.0	n/a	n/a	2.0	1.423	Phon/Phon_run-01/PM002.wav	2.0	1	1.173
19.465	4.4510000000000005	P_C	1.0	n/a	n/a	1.0	0.22	Phon/Phon_run-01/ContS21.wav	1.0	1	0.97
23.91800000000001	4.382	P_O	1.0	n/a	n/a	1.0	1.143	Phon/Phon_run-01/PC005.wav	1.0	1	0.893
28.305	3.3	P_U	2.0	n/a	n/a	2.0	1.266	Phon/Phon_run-01/stereo_PU26.wav	2.0	1	1.016
31.607	4.324	P_C	1.0	n/a	n/a	1.0	0.49	Phon/Phon_run-01/ContS03.wav	1.0	1	1.24
35.944	4.378	P_R	1.0	n/a	n/a	n/a	n/a	Phon/Phon_run-01/stereo_PR29.wav	1.0	1	3.7350000000000003
40.33	3.4810000000000003	P_U	2.0	1.0	0.35700000000000004	2.0	1.6340000000000001	Phon/Phon_run-01/PM020.wav	2.0	1	1.384
43.816	4.393	P_O	1.0	n/a	n/a	1.0	1.847	Phon/Phon_run-01/PC027.wav	1.0	1	1.597
48.22	4.4	P_R	1.0	n/a	n/a	1.0	1.4380000000000002	Phon/Phon_run-01/stereo_PR11.wav	1.0	1	1.1880000000000002
52.62300000000001	3.884	P_C	1.0	n/a	n/a	1.0	1.578	Phon/Phon_run-01/ContS05.wav	1.0	1	2.3280000000000003
56.50899999999999	3.891	P_U	2.0	n/a	n/a	n/a	n/a	Phon/Phon_run-01/stereo_PU28.wav	2.0	1	2.916
60.412	4.4	P_O	1.0	2.0	0.025	1.0	1.2009999999999998	Phon/Phon_run-01/PC013.wav	1.0	1	0.9509999999999998
64.816	3.513	P_C	1.0	n/a	n/a	1.0	0.45299999999999996	Phon/Phon_run-01/ContS17.wav	1.0	1	1.203
68.335	4.4	P_U	2.0	n/a	n/a	2.0	2.015	Phon/Phon_run-01/PM027.wav	2.0	1	1.7650000000000001
72.738	4.4	P_O	1.0	n/a	n/a	n/a	n/a	Phon/Phon_run-01/PC021.wav	n/a	0	n/a
77.142	4.496	P_C	1.0	n/a	n/a	1.0	0.389	Phon/Phon_run-01/ContS29.wav	1.0	1	1.139
81.645	3.3680000000000003	P_R	1.0	n/a	n/a	n/a	n/a	Phon/Phon_run-01/stereo_PR25.wav	1.0	1	2.7470000000000003
85.014	3.95	P_O	1.0	1.0	0.379	2.0	1.063	Phon/Phon_run-01/PC012.wav	2.0	0	0.813
88.96700000000001	3.95	P_U	2.0	n/a	n/a	2.0	1.2819999999999998	Phon/Phon_run-01/PM003.wav	2.0	1	1.0319999999999998
92.92	3.939	P_O	1.0	1.0	0.256	n/a	n/a	Phon/Phon_run-01/PC004.wav	n/a	0	n/a
96.87299999999999	3.59	P_C	1.0	n/a	n/a	1.0	0.267	Phon/Phon_run-01/ContS27.wav	1.0	1	1.017
100.476	4.296	P_U	2.0	n/a	n/a	2.0	2.1390000000000002	Phon/Phon_run-01/stereo_PU21.wav	2.0	1	1.8889999999999998
104.779	3.862	P_R	1.0	n/a	n/a	1.0	1.244	Phon/Phon_run-01/stereo_PR26.wav	1.0	1	0.994
108.649	3.95	P_O	1.0	n/a	n/a	1.0	1.955	Phon/Phon_run-01/PC026.wav	1.0	1	1.705
112.602	3.5	P_O	1.0	n/a	n/a	1.0	1.59	Phon/Phon_run-01/PC025.wav	1.0	1	1.34
116.105	4.013	P_C	1.0	n/a	n/a	1.0	0.474	Phon/Phon_run-01/ContS23.wav	1.0	1	1.224
120.124	3.792	P_R	1.0	n/a	n/a	1.0	1.158	Phon/Phon_run-01/stereo_PR18.wav	1.0	1	0.9079999999999999
123.927	3.346	P_U	2.0	n/a	n/a	n/a	n/a	Phon/Phon_run-01/stereo_PU19.wav	n/a	0	n/a
127.28	3.891	P_R	1.0	n/a	n/a	1.0	2.051	Phon/Phon_run-01/stereo_PR03.wav	1.0	1	1.8010000000000002
131.183	3.355	P_O	1.0	n/a	n/a	1.0	1.52	Phon/Phon_run-01/PC003.wav	1.0	1	1.27
134.55200000000002	3.951	P_C	1.0	n/a	n/a	2.0	0.517	Phon/Phon_run-01/ContS15.wav	2.0	0	1.267
138.505	3.74	P_U	2.0	n/a	n/a	1.0	1.901	Phon/Phon_run-01/stereo_PU16.wav	1.0	0	1.651
142.25799999999995	3.95	P_R	1.0	n/a	n/a	1.0	1.8880000000000001	Phon/Phon_run-01/stereo_PR10.wav	1.0	1	1.638
146.211	3.464	P_C	1.0	n/a	n/a	1.0	0.395	Phon/Phon_run-01/ContS09.wav	1.0	1	1.145
149.68	4.275	P_R	1.0	n/a	n/a	1.0	1.449	Phon/Phon_run-01/stereo_PR04.wav	1.0	1	1.199
153.967	3.95	P_U	2.0	n/a	n/a	2.0	1.581	Phon/Phon_run-01/PM023.wav	2.0	1	1.331
157.92	4.4	P_U	2.0	n/a	n/a	2.0	2.3569999999999998	Phon/Phon_run-01/PM001.wav	2.0	1	2.107
162.32299999999995	3.665	P_C	1.0	n/a	n/a	1.0	0.319	Phon/Phon_run-01/ContS35.wav	1.0	1	1.069
165.99200000000005	3.463	P_O	1.0	n/a	n/a	1.0	1.561	Phon/Phon_run-01/PC017.wav	1.0	1	1.311
169.46200000000005	4.332	P_R	1.0	n/a	n/a	n/a	n/a	Phon/Phon_run-01/stereo_PR19.wav	n/a	0	n/a
173.798	4.083	P_C	1.0	n/a	n/a	1.0	0.6759999999999999	Phon/Phon_run-01/ContS33.wav	1.0	1	1.426
177.885	3.5	P_R	1.0	n/a	n/a	1.0	1.1440000000000001	Phon/Phon_run-01/stereo_PR17.wav	1.0	1	0.8939999999999999
181.387	4.2669999999999995	P_U	2.0	n/a	n/a	2.0	1.368	Phon/Phon_run-01/PM009.wav	2.0	1	1.118
185.657	3.4389999999999996	P_R	1.0	n/a	n/a	1.0	1.264	Phon/Phon_run-01/stereo_PR09.wav	1.0	1	1.014
