onset	duration	trial_type	correct	window1_response	window1_RT	window2_response	window2_RT	stim_file	calculated_response	calculated_accuracy	calculated_RT
1.0918	4.2	S_U	2.0	n/a	n/a	2.0	2.49	Sem/Sem_run-01/stereo_1SU41A0.wav	2.0	1	2.24
5.2953	3.596	S_C	1.0	n/a	n/a	1.0	0.358	Sem/Sem_run-01/ContS29.wav	1.0	1	1.108
8.898	3.425	S_U	2.0	n/a	n/a	n/a	n/a	Sem/Sem_run-01/stereo_2SU87A0.wav	n/a	0	n/a
12.3338	3.933	S_H	1.0	n/a	n/a	1.0	2.062	Sem/Sem_run-01/stereo_1SH13A0.wav	1.0	1	1.8119999999999998
16.2699	4.323	S_H	1.0	n/a	n/a	2.0	1.63	Sem/Sem_run-01/stereo_1SH05A0.wav	2.0	0	1.38
20.6064	4.073	S_C	1.0	n/a	n/a	1.0	1.012	Sem/Sem_run-01/ContS31.wav	1.0	1	1.762
24.6927	3.869	S_L	1.0	n/a	n/a	n/a	n/a	Sem/Sem_run-01/stereo_2SL63A0.wav	n/a	0	n/a
28.5634	3.75	S_L	1.0	n/a	n/a	1.0	1.6540000000000001	Sem/Sem_run-01/stereo_1SL29A0.wav	1.0	1	1.404
32.3161	4.3660000000000005	S_U	2.0	n/a	n/a	2.0	1.588	Sem/Sem_run-01/stereo_2SU78A0.wav	2.0	1	1.338
36.6859	3.3	S_L	1.0	n/a	n/a	1.0	2.022	Sem/Sem_run-01/stereo_1SL17A0.wav	1.0	1	1.7719999999999998
39.9885	3.884	S_C	1.0	n/a	n/a	1.0	0.467	Sem/Sem_run-01/ContS05.wav	1.0	1	1.217
43.8755	4.371	S_H	1.0	n/a	n/a	1.0	3.1710000000000003	Sem/Sem_run-01/stereo_2SH58A0.wav	1.0	1	2.9210000000000003
48.2606	4.329	S_L	1.0	n/a	n/a	2.0	1.499	Sem/Sem_run-01/stereo_2SL72A0.wav	2.0	0	1.249
52.5971	3.94	S_H	1.0	n/a	n/a	1.0	2.391	Sem/Sem_run-01/stereo_2SH57A0.wav	1.0	1	2.141
56.55	4.2	S_U	2.0	n/a	n/a	2.0	1.4080000000000001	Sem/Sem_run-01/stereo_2SU83A0.wav	2.0	1	1.158
60.753	3.474	S_C	1.0	n/a	n/a	1.0	0.435	Sem/Sem_run-01/ContS11.wav	1.0	1	1.185
64.2389	4.271	S_L	1.0	n/a	n/a	1.0	1.59	Sem/Sem_run-01/stereo_1SL26A0.wav	1.0	1	1.34
68.5248	3.91	S_L	1.0	n/a	n/a	1.0	1.959	Sem/Sem_run-01/stereo_1SL25A0.wav	1.0	1	1.709
72.4443	4.479	S_C	1.0	n/a	n/a	1.0	1.7080000000000002	Sem/Sem_run-01/ContS25.wav	1.0	1	2.458
76.9309	3.378	S_U	2.0	n/a	n/a	n/a	n/a	Sem/Sem_run-01/stereo_2SU81A0.wav	n/a	0	n/a
80.3167	3.42	S_L	1.0	n/a	n/a	1.0	1.776	Sem/Sem_run-01/stereo_1SL27A0.wav	1.0	1	1.526
83.7479	4.3439999999999985	S_L	1.0	n/a	n/a	1.0	1.7990000000000002	Sem/Sem_run-01/stereo_1SL30A0.wav	1.0	1	1.5490000000000002
88.1008	3.909	S_L	1.0	n/a	n/a	1.0	1.876	Sem/Sem_run-01/stereo_2SL71A0.wav	1.0	1	1.626
92.0205	3.867	S_H	1.0	n/a	n/a	1.0	1.493	Sem/Sem_run-01/stereo_1SH04A0.wav	1.0	1	1.243
95.8902	3.828	S_U	2.0	n/a	n/a	2.0	1.31	Sem/Sem_run-01/stereo_1SU37A0.wav	2.0	1	1.06
99.7264	4.565	S_C	1.0	n/a	n/a	1.0	1.018	Sem/Sem_run-01/ContS35.wav	1.0	1	1.768
104.2964	3.3	S_U	2.0	n/a	n/a	n/a	n/a	Sem/Sem_run-01/stereo_1SU35A0.wav	2.0	1	2.737
107.5986	3.477	S_L	1.0	2.0	0.43700000000000006	1.0	1.6880000000000002	Sem/Sem_run-01/stereo_2SL65A0.wav	1.0	1	1.4380000000000002
111.0845	3.83	S_H	1.0	n/a	n/a	2.0	1.99	Sem/Sem_run-01/stereo_1SH07A0.wav	2.0	0	1.74
114.9207	4.3439999999999985	S_C	1.0	1.0	0.043	1.0	0.27	Sem/Sem_run-01/ContS07.wav	1.0	1	0.043
119.2738	3.5	S_H	1.0	n/a	n/a	1.0	1.456	Sem/Sem_run-01/stereo_1SH03A0.wav	1.0	1	1.206
122.7765	3.919	S_U	2.0	n/a	n/a	n/a	n/a	Sem/Sem_run-01/stereo_1SU45A0.wav	n/a	0	n/a
126.697	3.5	S_H	1.0	n/a	n/a	1.0	2.108	Sem/Sem_run-01/stereo_1SH06A0.wav	1.0	1	1.858
130.1996	3.392	S_L	1.0	n/a	n/a	1.0	2.141	Sem/Sem_run-01/stereo_2SL62A0.wav	1.0	1	1.891
133.6021	3.54	S_C	1.0	n/a	n/a	1.0	0.013999999999999999	Sem/Sem_run-01/ContS19.wav	1.0	1	0.764
137.1547	4.4	S_H	1.0	n/a	n/a	1.0	2.835	Sem/Sem_run-01/stereo_1SH15A0.wav	1.0	1	2.585
141.5578	3.342	S_H	1.0	n/a	n/a	1.0	1.287	Sem/Sem_run-01/stereo_1SH11A0.wav	1.0	1	1.037
144.9103	3.385	S_U	2.0	n/a	n/a	2.0	1.4	Sem/Sem_run-01/stereo_1SU44A0.wav	2.0	1	1.15
148.2972	3.4160000000000004	S_H	1.0	n/a	n/a	1.0	1.9180000000000001	Sem/Sem_run-01/stereo_2SH56A0.wav	1.0	1	1.668
151.7164	3.849	S_U	2.0	n/a	n/a	2.0	1.2	Sem/Sem_run-01/stereo_2SU82A0.wav	2.0	1	0.95
155.5691	3.934	S_C	1.0	n/a	n/a	1.0	0.91	Sem/Sem_run-01/ContS13.wav	1.0	1	1.6600000000000001
159.506	4.309	S_L	1.0	n/a	n/a	1.0	1.954	Sem/Sem_run-01/stereo_2SL64A0.wav	1.0	1	1.704
163.8257	4.413	S_C	1.0	n/a	n/a	1.0	0.623	Sem/Sem_run-01/ContS17.wav	1.0	1	1.373
168.2456	4.2	S_U	2.0	n/a	n/a	2.0	1.7719999999999998	Sem/Sem_run-01/stereo_2SU90A0.wav	2.0	1	1.5219999999999998
172.4489	3.846	S_U	2.0	n/a	n/a	1.0	2.365	Sem/Sem_run-01/stereo_2SU88A0.wav	1.0	0	2.115
176.3017	3.3939999999999997	S_C	1.0	n/a	n/a	1.0	0.782	Sem/Sem_run-01/ContS01.wav	1.0	1	1.532
179.7041	4.013	S_C	1.0	n/a	n/a	1.0	0.32899999999999996	Sem/Sem_run-01/ContS23.wav	1.0	1	1.079
183.7237	4.227	S_H	1.0	n/a	n/a	1.0	2.295	Sem/Sem_run-01/stereo_1SH08A0.wav	1.0	1	2.045
