onset	duration	trial_type	correct	window1_response	window1_RT	window2_response	window2_RT	stim_file	calculated_response	calculated_accuracy	calculated_RT
1.084	4.2	S_U	2.0	n/a	n/a	1.0	1.492	Sem/Sem_run-01/stereo_1SU41A0.wav	1.0	0	1.242
5.287000000000001	3.596	S_C	1.0	n/a	n/a	1.0	0.375	Sem/Sem_run-01/ContS29.wav	1.0	1	1.125
8.89	3.425	S_U	2.0	n/a	n/a	2.0	0.861	Sem/Sem_run-01/stereo_2SU87A0.wav	2.0	1	0.611
12.325999999999999	3.933	S_H	1.0	n/a	n/a	1.0	1.541	Sem/Sem_run-01/stereo_1SH13A0.wav	1.0	1	1.291
16.262999999999998	4.323	S_H	1.0	n/a	n/a	1.0	1.133	Sem/Sem_run-01/stereo_1SH05A0.wav	1.0	1	0.883
20.6	4.073	S_C	1.0	1.0	0.685	1.0	0.94	Sem/Sem_run-01/ContS31.wav	1.0	1	0.685
24.686	3.869	S_L	1.0	n/a	n/a	1.0	1.77	Sem/Sem_run-01/stereo_2SL63A0.wav	1.0	1	1.52
28.555999999999997	3.75	S_L	1.0	n/a	n/a	1.0	2.286	Sem/Sem_run-01/stereo_1SL29A0.wav	1.0	1	2.036
32.309	4.3660000000000005	S_U	2.0	n/a	n/a	n/a	n/a	Sem/Sem_run-01/stereo_2SU78A0.wav	n/a	0	n/a
36.679	3.3	S_L	1.0	n/a	n/a	n/a	n/a	Sem/Sem_run-01/stereo_1SL17A0.wav	n/a	0	n/a
39.982	3.884	S_C	1.0	n/a	n/a	1.0	2.327	Sem/Sem_run-01/ContS05.wav	1.0	1	3.077
43.868	4.371	S_H	1.0	n/a	n/a	1.0	1.979	Sem/Sem_run-01/stereo_2SH58A0.wav	1.0	1	1.729
48.239	4.329	S_L	1.0	n/a	n/a	1.0	2.1719999999999997	Sem/Sem_run-01/stereo_2SL72A0.wav	1.0	1	1.9220000000000002
52.575	3.94	S_H	1.0	n/a	n/a	1.0	1.081	Sem/Sem_run-01/stereo_2SH57A0.wav	1.0	1	0.831
56.528999999999996	4.2	S_U	2.0	n/a	n/a	1.0	2.406	Sem/Sem_run-01/stereo_2SU83A0.wav	1.0	0	2.156
60.732	3.474	S_C	1.0	n/a	n/a	1.0	0.006	Sem/Sem_run-01/ContS11.wav	1.0	1	0.756
64.218	4.271	S_L	1.0	n/a	n/a	1.0	1.324	Sem/Sem_run-01/stereo_1SL26A0.wav	1.0	1	1.074
68.505	3.91	S_L	1.0	n/a	n/a	1.0	1.54	Sem/Sem_run-01/stereo_1SL25A0.wav	1.0	1	1.29
72.425	4.479	S_C	1.0	n/a	n/a	1.0	1.162	Sem/Sem_run-01/ContS25.wav	1.0	1	1.912
76.91199999999998	3.378	S_U	2.0	n/a	n/a	2.0	1.548	Sem/Sem_run-01/stereo_2SU81A0.wav	2.0	1	1.298
80.298	3.42	S_L	1.0	n/a	n/a	n/a	n/a	Sem/Sem_run-01/stereo_1SL27A0.wav	n/a	0	n/a
83.734	4.3439999999999985	S_L	1.0	n/a	n/a	1.0	2.121	Sem/Sem_run-01/stereo_1SL30A0.wav	1.0	1	1.871
88.088	3.909	S_L	1.0	n/a	n/a	2.0	1.976	Sem/Sem_run-01/stereo_2SL71A0.wav	2.0	0	1.726
92.007	3.867	S_H	1.0	n/a	n/a	1.0	1.112	Sem/Sem_run-01/stereo_1SH04A0.wav	1.0	1	0.8620000000000001
95.87700000000001	3.828	S_U	2.0	n/a	n/a	1.0	0.9059999999999999	Sem/Sem_run-01/stereo_1SU37A0.wav	1.0	0	0.656
99.714	4.565	S_C	1.0	n/a	n/a	1.0	1.006	Sem/Sem_run-01/ContS35.wav	1.0	1	1.756
104.28399999999999	3.3	S_U	2.0	n/a	n/a	2.0	1.206	Sem/Sem_run-01/stereo_1SU35A0.wav	2.0	1	0.956
107.587	3.477	S_L	1.0	n/a	n/a	1.0	1.3359999999999999	Sem/Sem_run-01/stereo_2SL65A0.wav	1.0	1	1.086
111.073	3.83	S_H	1.0	n/a	n/a	1.0	2.427	Sem/Sem_run-01/stereo_1SH07A0.wav	1.0	1	2.177
114.90899999999999	4.3439999999999985	S_C	1.0	n/a	n/a	1.0	0.12300000000000001	Sem/Sem_run-01/ContS07.wav	1.0	1	0.873
119.26299999999999	3.5	S_H	1.0	n/a	n/a	1.0	1.734	Sem/Sem_run-01/stereo_1SH03A0.wav	1.0	1	1.484
122.766	3.919	S_U	2.0	n/a	n/a	1.0	2.001	Sem/Sem_run-01/stereo_1SU45A0.wav	1.0	0	1.751
126.685	3.5	S_H	1.0	n/a	n/a	2.0	0.996	Sem/Sem_run-01/stereo_1SH06A0.wav	2.0	0	0.746
130.188	3.392	S_L	1.0	n/a	n/a	1.0	1.6780000000000002	Sem/Sem_run-01/stereo_2SL62A0.wav	1.0	1	1.4280000000000002
133.591	3.54	S_C	1.0	n/a	n/a	1.0	0.586	Sem/Sem_run-01/ContS19.wav	1.0	1	1.3359999999999999
137.144	4.4	S_H	1.0	n/a	n/a	1.0	1.421	Sem/Sem_run-01/stereo_1SH15A0.wav	1.0	1	1.171
141.547	3.342	S_H	1.0	n/a	n/a	1.0	1.7480000000000002	Sem/Sem_run-01/stereo_1SH11A0.wav	1.0	1	1.4980000000000002
144.9	3.385	S_U	2.0	n/a	n/a	2.0	1.3769999999999998	Sem/Sem_run-01/stereo_1SU44A0.wav	2.0	1	1.1269999999999998
148.286	3.4160000000000004	S_H	1.0	n/a	n/a	1.0	1.02	Sem/Sem_run-01/stereo_2SH56A0.wav	1.0	1	0.77
151.70600000000005	3.849	S_U	2.0	n/a	n/a	1.0	2.182	Sem/Sem_run-01/stereo_2SU82A0.wav	1.0	0	1.932
155.559	3.934	S_C	1.0	n/a	n/a	1.0	0.146	Sem/Sem_run-01/ContS13.wav	1.0	1	0.896
159.495	4.309	S_L	1.0	n/a	n/a	1.0	1.028	Sem/Sem_run-01/stereo_2SL64A0.wav	1.0	1	0.778
163.815	4.413	S_C	1.0	1.0	0.674	1.0	0.6759999999999999	Sem/Sem_run-01/ContS17.wav	1.0	1	0.674
168.236	4.2	S_U	2.0	n/a	n/a	1.0	2.2840000000000003	Sem/Sem_run-01/stereo_2SU90A0.wav	1.0	0	2.0340000000000003
172.43900000000005	3.846	S_U	2.0	n/a	n/a	1.0	1.4240000000000002	Sem/Sem_run-01/stereo_2SU88A0.wav	1.0	0	1.1740000000000002
176.292	3.3939999999999997	S_C	1.0	n/a	n/a	1.0	0.8170000000000001	Sem/Sem_run-01/ContS01.wav	1.0	1	1.5670000000000002
179.695	4.013	S_C	1.0	n/a	n/a	1.0	0.114	Sem/Sem_run-01/ContS23.wav	1.0	1	0.864
183.715	4.227	S_H	1.0	n/a	n/a	1.0	0.971	Sem/Sem_run-01/stereo_1SH08A0.wav	1.0	1	0.721
