onset	duration	trial_type	correct	window1_response	window1_RT	window2_response	window2_RT	stim_file	calculated_response	calculated_accuracy	calculated_RT
1.119	7.034	SP_W	1.0	n/a	n/a	1.0	3.838	Plaus/Plaus_run-01/stereo_PW85.wav	1.0	1	1.6909999999999998
8.158	5.641	SP_I	2.0	n/a	n/a	2.0	2.345	Plaus/Plaus_run-01/stereo_PI11.wav	2.0	1	1.425
13.813	6.77	SP_C	1.0	1.0	0.723	1.0	1.452	Plaus/Plaus_run-01/CoM08b.wav	1.0	1	0.723
20.586	7.327000000000001	SP_W	1.0	n/a	n/a	1.0	3.313	Plaus/Plaus_run-01/stereo_PW72.wav	1.0	1	1.3330000000000002
27.927	6.145	SP_C	1.0	n/a	n/a	1.0	0.2	Plaus/Plaus_run-01/CoM05d.wav	1.0	1	0.95
34.082	5.181	SP_I	2.0	n/a	n/a	2.0	3.4739999999999998	Plaus/Plaus_run-01/stereo_PI65.wav	2.0	1	2.532
39.271	5.092	SP_S	1.0	n/a	n/a	2.0	2.4219999999999997	Plaus/Plaus_run-01/stereo_PC13.wav	2.0	0	1.359
44.375	7.355	SP_C	1.0	1.0	0.65	1.0	1.107	Plaus/Plaus_run-01/CoM06l.wav	1.0	1	0.65
51.732	7.47	SP_I	2.0	n/a	n/a	2.0	3.883	Plaus/Plaus_run-01/stereo_PI90.wav	2.0	1	1.7120000000000002
59.206	7.399	SP_S	1.0	n/a	n/a	1.0	3.5189999999999997	Plaus/Plaus_run-01/stereo_PC35.wav	1.0	1	1.2520000000000002
66.613	5.685	SP_S	1.0	n/a	n/a	1.0	2.69	Plaus/Plaus_run-01/stereo_PC47.wav	1.0	1	1.6809999999999998
72.30199999999998	5.669	SP_W	1.0	n/a	n/a	1.0	2.7880000000000003	Plaus/Plaus_run-01/stereo_PW19.wav	1.0	1	1.7820000000000003
77.97399999999998	7.9	SP_C	1.0	n/a	n/a	1.0	0.19399999999999998	Plaus/Plaus_run-01/CoM03l.wav	1.0	1	0.944
85.881	5.145	SP_I	2.0	n/a	n/a	2.0	2.6919999999999997	Plaus/Plaus_run-01/stereo_PI09.wav	2.0	1	1.6840000000000004
91.037	6.9170000000000025	SP_W	1.0	n/a	n/a	1.0	3.502	Plaus/Plaus_run-01/stereo_PW30.wav	1.0	1	1.3819999999999997
97.959	5.738	SP_S	1.0	n/a	n/a	1.0	2.8710000000000004	Plaus/Plaus_run-01/stereo_PC14.wav	1.0	1	1.7000000000000004
103.698	6.276	SP_W	1.0	n/a	n/a	1.0	2.589	Plaus/Plaus_run-01/stereo_PW50.wav	1.0	1	1.767
109.987	5.49	SP_C	1.0	n/a	n/a	1.0	0.419	Plaus/Plaus_run-01/CoM03d.wav	1.0	1	1.169
115.492	5.7	SP_I	2.0	n/a	n/a	1.0	2.778	Plaus/Plaus_run-01/stereo_PI67.wav	1.0	0	1.887
121.197	7.237	SP_S	1.0	n/a	n/a	1.0	3.068	Plaus/Plaus_run-01/stereo_PC68.wav	1.0	1	1.1019999999999999
128.438	6.49	SP_C	1.0	n/a	n/a	1.0	0.483	Plaus/Plaus_run-01/CoM03b.wav	1.0	1	1.233
134.944	6.25	SP_W	1.0	n/a	n/a	1.0	3.181	Plaus/Plaus_run-01/stereo_PW61.wav	1.0	1	2.201
141.2	6.952999999999999	SP_I	2.0	n/a	n/a	2.0	3.9389999999999996	Plaus/Plaus_run-01/stereo_PI32.wav	2.0	1	1.774
148.156	7.085	SP_C	1.0	n/a	n/a	1.0	0.028999999999999998	Plaus/Plaus_run-01/CoM02e.wav	1.0	1	0.779
155.246	6.3610000000000015	SP_S	1.0	n/a	n/a	1.0	3.45	Plaus/Plaus_run-01/stereo_PC24.wav	1.0	1	1.1920000000000002
161.619	5.1110000000000015	SP_W	1.0	n/a	n/a	1.0	3.9610000000000003	Plaus/Plaus_run-01/stereo_PW53.wav	1.0	1	2.947
166.74	6.2860000000000005	SP_I	2.0	n/a	n/a	2.0	3.7310000000000003	Plaus/Plaus_run-01/stereo_PI42.wav	2.0	1	1.5350000000000001
173.03099999999995	6.577000000000001	SP_S	1.0	n/a	n/a	1.0	2.923	Plaus/Plaus_run-01/stereo_PC57.wav	1.0	1	1.728
179.61900000000003	5.273	SP_W	1.0	n/a	n/a	1.0	2.748	Plaus/Plaus_run-01/stereo_PW18.wav	1.0	1	1.5810000000000002
184.907	5.77	SP_C	1.0	n/a	n/a	1.0	0.66	Plaus/Plaus_run-01/CoM09b.wav	1.0	1	1.4100000000000001
190.679	6.731	SP_S	1.0	n/a	n/a	1.0	3.717	Plaus/Plaus_run-01/stereo_PC26.wav	1.0	1	1.617
197.419	7.212999999999999	SP_I	2.0	n/a	n/a	1.0	3.895	Plaus/Plaus_run-01/stereo_PI33.wav	1.0	0	1.912
204.642	5.181	SP_S	1.0	n/a	n/a	1.0	2.327	Plaus/Plaus_run-01/stereo_PC01.wav	1.0	1	1.3860000000000001
209.831	6.238	SP_S	1.0	n/a	n/a	1.0	4.19	Plaus/Plaus_run-01/stereo_PC36.wav	1.0	1	2.144
216.07	7.73	SP_C	1.0	n/a	n/a	1.0	0.386	Plaus/Plaus_run-01/CoM10e.wav	1.0	1	1.1360000000000001
223.81	6.843	SP_I	2.0	n/a	n/a	n/a	n/a	Plaus/Plaus_run-01/stereo_PI45.wav	n/a	0	n/a
230.667	6.101	SP_W	1.0	n/a	n/a	1.0	3.56	Plaus/Plaus_run-01/stereo_PW28.wav	1.0	1	1.6279999999999997
236.772	7.419	SP_W	1.0	n/a	n/a	1.0	4.019	Plaus/Plaus_run-01/stereo_PW86.wav	1.0	1	1.9830000000000005
244.196	6.54	SP_C	1.0	1.0	0.585	1.0	0.925	Plaus/Plaus_run-01/CoM05e.wav	1.0	1	0.585
250.736	6.247000000000001	SP_I	2.0	n/a	n/a	1.0	2.7510000000000003	Plaus/Plaus_run-01/stereo_PI12.wav	1.0	0	1.8800000000000003
