onset	duration	trial_type	correct	window1_response	window1_RT	window2_response	window2_RT	stim_file	calculated_response	calculated_accuracy	calculated_RT
1.0964	7.034	SP_W	1.0	n/a	n/a	2.0	3.93	Plaus/Plaus_run-01/stereo_PW85.wav	2.0	0	1.7830000000000001
8.1359	5.641	SP_I	2.0	n/a	n/a	2.0	2.424	Plaus/Plaus_run-01/stereo_PI11.wav	2.0	1	1.5039999999999998
13.79	6.77	SP_C	1.0	n/a	n/a	1.0	1.113	Plaus/Plaus_run-01/CoM08b.wav	1.0	1	1.8630000000000002
20.5628	7.327000000000001	SP_W	1.0	n/a	n/a	2.0	4.755	Plaus/Plaus_run-01/stereo_PW72.wav	2.0	0	2.775
27.9014	6.145	SP_C	1.0	n/a	n/a	1.0	4.098	Plaus/Plaus_run-01/CoM05d.wav	1.0	1	4.848
34.0559	5.181	SP_I	2.0	n/a	n/a	2.0	2.629	Plaus/Plaus_run-01/stereo_PI65.wav	2.0	1	1.6869999999999994
39.243	5.092	SP_S	1.0	n/a	n/a	1.0	2.733	Plaus/Plaus_run-01/stereo_PC13.wav	1.0	1	1.67
44.3468	7.355	SP_C	1.0	n/a	n/a	1.0	2.994	Plaus/Plaus_run-01/CoM06l.wav	1.0	1	3.744
51.7032	7.47	SP_I	2.0	n/a	n/a	2.0	4.137	Plaus/Plaus_run-01/stereo_PI90.wav	2.0	1	1.966
59.1764	7.399	SP_S	1.0	n/a	n/a	1.0	3.658	Plaus/Plaus_run-01/stereo_PC35.wav	1.0	1	1.391
66.5818	5.685	SP_S	1.0	n/a	n/a	1.0	2.984	Plaus/Plaus_run-01/stereo_PC47.wav	1.0	1	1.975
72.2704	5.669	SP_W	1.0	n/a	n/a	2.0	2.7460000000000004	Plaus/Plaus_run-01/stereo_PW19.wav	2.0	0	1.7400000000000004
77.9423	7.9	SP_C	1.0	n/a	n/a	1.0	0.457	Plaus/Plaus_run-01/CoM03l.wav	1.0	1	1.207
85.8483	5.145	SP_I	2.0	n/a	n/a	1.0	3.383	Plaus/Plaus_run-01/stereo_PI09.wav	1.0	0	2.375
91.0021	6.9170000000000025	SP_W	1.0	n/a	n/a	1.0	3.774	Plaus/Plaus_run-01/stereo_PW30.wav	1.0	1	1.6539999999999997
97.9243	5.738	SP_S	1.0	n/a	n/a	2.0	3.584	Plaus/Plaus_run-01/stereo_PC14.wav	2.0	0	2.4130000000000003
103.6662	6.276	SP_W	1.0	n/a	n/a	1.0	3.277	Plaus/Plaus_run-01/stereo_PW50.wav	1.0	1	2.455
109.954	5.49	SP_C	1.0	n/a	n/a	1.0	1.235	Plaus/Plaus_run-01/CoM03d.wav	1.0	1	1.985
115.458	5.7	SP_I	2.0	n/a	n/a	2.0	3.008	Plaus/Plaus_run-01/stereo_PI67.wav	2.0	1	2.117
121.1625	7.237	SP_S	1.0	n/a	n/a	1.0	4.682	Plaus/Plaus_run-01/stereo_PC68.wav	1.0	1	2.716
128.4022	6.49	SP_C	1.0	n/a	n/a	1.0	1.307	Plaus/Plaus_run-01/CoM03b.wav	1.0	1	2.057
134.9065	6.25	SP_W	1.0	n/a	n/a	1.0	3.136	Plaus/Plaus_run-01/stereo_PW61.wav	1.0	1	2.156
141.161	6.952999999999999	SP_I	2.0	n/a	n/a	2.0	3.84	Plaus/Plaus_run-01/stereo_PI32.wav	2.0	1	1.6749999999999998
148.1173	7.085	SP_C	1.0	n/a	n/a	1.0	1.254	Plaus/Plaus_run-01/CoM02e.wav	1.0	1	2.004
155.2068	6.3610000000000015	SP_S	1.0	n/a	n/a	1.0	4.553999999999999	Plaus/Plaus_run-01/stereo_PC24.wav	1.0	1	2.2959999999999985
161.5781	5.1110000000000015	SP_W	1.0	n/a	n/a	1.0	2.906	Plaus/Plaus_run-01/stereo_PW53.wav	1.0	1	1.8920000000000003
166.6985	6.2860000000000005	SP_I	2.0	n/a	n/a	2.0	3.872	Plaus/Plaus_run-01/stereo_PI42.wav	2.0	1	1.6760000000000002
172.9876	6.577000000000001	SP_S	1.0	n/a	n/a	1.0	3.056	Plaus/Plaus_run-01/stereo_PC57.wav	1.0	1	1.861
179.5757	5.273	SP_W	1.0	n/a	n/a	2.0	2.842	Plaus/Plaus_run-01/stereo_PW18.wav	2.0	0	1.675
184.8629	5.77	SP_C	1.0	n/a	n/a	1.0	3.879	Plaus/Plaus_run-01/CoM09b.wav	1.0	1	4.629
190.6348	6.731	SP_S	1.0	n/a	n/a	1.0	4.274	Plaus/Plaus_run-01/stereo_PC26.wav	1.0	1	2.174
197.3731	7.212999999999999	SP_I	2.0	n/a	n/a	2.0	3.86	Plaus/Plaus_run-01/stereo_PI33.wav	2.0	1	1.877
204.595	5.181	SP_S	1.0	n/a	n/a	1.0	3.426	Plaus/Plaus_run-01/stereo_PC01.wav	1.0	1	2.4850000000000003
209.7821	6.238	SP_S	1.0	n/a	n/a	2.0	3.798	Plaus/Plaus_run-01/stereo_PC36.wav	2.0	0	1.7519999999999998
216.0211	7.73	SP_C	1.0	n/a	n/a	1.0	0.6859999999999999	Plaus/Plaus_run-01/CoM10e.wav	1.0	1	1.436
223.7601	6.843	SP_I	2.0	n/a	n/a	2.0	5.126	Plaus/Plaus_run-01/stereo_PI45.wav	2.0	1	2.999000000000001
230.615	6.101	SP_W	1.0	n/a	n/a	2.0	3.879	Plaus/Plaus_run-01/stereo_PW28.wav	2.0	0	1.9469999999999992
236.7206	7.419	SP_W	1.0	n/a	n/a	1.0	3.752	Plaus/Plaus_run-01/stereo_PW86.wav	1.0	1	1.7160000000000002
244.1438	6.54	SP_C	1.0	n/a	n/a	1.0	1.525	Plaus/Plaus_run-01/CoM05e.wav	1.0	1	2.275
250.6981	6.247000000000001	SP_I	2.0	n/a	n/a	2.0	3.707	Plaus/Plaus_run-01/stereo_PI12.wav	2.0	1	2.8360000000000003
