onset	duration	trial_type	correct	window1_response	window1_RT	window2_response	window2_RT	stim_file	calculated_response	calculated_accuracy	calculated_RT
1.084	7.034	SP_W	1.0	n/a	n/a	1.0	4.037	Plaus/Plaus_run-01/stereo_PW85.wav	1.0	1	1.89
8.123	5.641	SP_I	2.0	n/a	n/a	2.0	2.575	Plaus/Plaus_run-01/stereo_PI11.wav	2.0	1	1.655
13.777	6.77	SP_C	1.0	n/a	n/a	1.0	0.537	Plaus/Plaus_run-01/CoM08b.wav	1.0	1	1.287
20.549	7.327000000000001	SP_W	1.0	n/a	n/a	1.0	3.921	Plaus/Plaus_run-01/stereo_PW72.wav	1.0	1	1.9410000000000005
27.888	6.145	SP_C	1.0	n/a	n/a	1.0	0.645	Plaus/Plaus_run-01/CoM05d.wav	1.0	1	1.395
34.043	5.181	SP_I	2.0	n/a	n/a	2.0	2.719	Plaus/Plaus_run-01/stereo_PI65.wav	2.0	1	1.7769999999999997
39.23	5.092	SP_S	1.0	n/a	n/a	2.0	3.122	Plaus/Plaus_run-01/stereo_PC13.wav	2.0	0	2.059
44.334	7.355	SP_C	1.0	n/a	n/a	1.0	0.935	Plaus/Plaus_run-01/CoM06l.wav	1.0	1	1.685
51.69	7.47	SP_I	2.0	n/a	n/a	2.0	4.501	Plaus/Plaus_run-01/stereo_PI90.wav	2.0	1	2.3300000000000005
59.162	7.399	SP_S	1.0	n/a	n/a	1.0	3.716	Plaus/Plaus_run-01/stereo_PC35.wav	1.0	1	1.4490000000000005
66.568	5.685	SP_S	1.0	n/a	n/a	1.0	3.059	Plaus/Plaus_run-01/stereo_PC47.wav	1.0	1	2.05
72.255	5.669	SP_W	1.0	n/a	n/a	2.0	2.785	Plaus/Plaus_run-01/stereo_PW19.wav	2.0	0	1.779
77.926	7.9	SP_C	1.0	n/a	n/a	1.0	0.488	Plaus/Plaus_run-01/CoM03l.wav	1.0	1	1.238
85.83200000000002	5.145	SP_I	2.0	n/a	n/a	2.0	3.279	Plaus/Plaus_run-01/stereo_PI09.wav	2.0	1	2.271
90.986	6.9170000000000025	SP_W	1.0	n/a	n/a	1.0	3.762	Plaus/Plaus_run-01/stereo_PW30.wav	1.0	1	1.642
97.908	5.738	SP_S	1.0	n/a	n/a	1.0	2.934	Plaus/Plaus_run-01/stereo_PC14.wav	1.0	1	1.7629999999999997
103.646	6.276	SP_W	1.0	n/a	n/a	1.0	2.705	Plaus/Plaus_run-01/stereo_PW50.wav	1.0	1	1.883
109.934	5.49	SP_C	1.0	n/a	n/a	1.0	0.151	Plaus/Plaus_run-01/CoM03d.wav	1.0	1	0.9009999999999999
115.438	5.7	SP_I	2.0	n/a	n/a	2.0	2.934	Plaus/Plaus_run-01/stereo_PI67.wav	2.0	1	2.043
121.143	7.237	SP_S	1.0	n/a	n/a	1.0	3.854	Plaus/Plaus_run-01/stereo_PC68.wav	1.0	1	1.8880000000000001
128.382	6.49	SP_C	1.0	n/a	n/a	1.0	0.268	Plaus/Plaus_run-01/CoM03b.wav	1.0	1	1.018
134.887	6.25	SP_W	1.0	n/a	n/a	1.0	2.619	Plaus/Plaus_run-01/stereo_PW61.wav	1.0	1	1.6389999999999998
141.141	6.952999999999999	SP_I	2.0	n/a	n/a	2.0	3.964	Plaus/Plaus_run-01/stereo_PI32.wav	2.0	1	1.7990000000000002
148.097	7.085	SP_C	1.0	n/a	n/a	1.0	0.302	Plaus/Plaus_run-01/CoM02e.wav	1.0	1	1.052
155.185	6.3610000000000015	SP_S	1.0	n/a	n/a	1.0	4.125	Plaus/Plaus_run-01/stereo_PC24.wav	1.0	1	1.867
161.55700000000004	5.1110000000000015	SP_W	1.0	n/a	n/a	1.0	3.424	Plaus/Plaus_run-01/stereo_PW53.wav	1.0	1	2.41
166.678	6.2860000000000005	SP_I	2.0	n/a	n/a	2.0	3.914	Plaus/Plaus_run-01/stereo_PI42.wav	2.0	1	1.7180000000000002
172.96599999999995	6.577000000000001	SP_S	1.0	n/a	n/a	1.0	3.119	Plaus/Plaus_run-01/stereo_PC57.wav	1.0	1	1.924
179.554	5.273	SP_W	1.0	n/a	n/a	1.0	2.967	Plaus/Plaus_run-01/stereo_PW18.wav	1.0	1	1.8
184.841	5.77	SP_C	1.0	n/a	n/a	1.0	1.366	Plaus/Plaus_run-01/CoM09b.wav	1.0	1	2.116
190.613	6.731	SP_S	1.0	n/a	n/a	1.0	3.944	Plaus/Plaus_run-01/stereo_PC26.wav	1.0	1	1.844
197.351	7.212999999999999	SP_I	2.0	n/a	n/a	2.0	3.551	Plaus/Plaus_run-01/stereo_PI33.wav	2.0	1	1.568
204.573	5.181	SP_S	1.0	n/a	n/a	1.0	2.728	Plaus/Plaus_run-01/stereo_PC01.wav	1.0	1	1.7870000000000004
209.76	6.238	SP_S	1.0	n/a	n/a	1.0	3.679	Plaus/Plaus_run-01/stereo_PC36.wav	1.0	1	1.6329999999999996
215.999	7.73	SP_C	1.0	n/a	n/a	1.0	0.65	Plaus/Plaus_run-01/CoM10e.wav	1.0	1	1.4
223.738	6.843	SP_I	2.0	n/a	n/a	2.0	4.545	Plaus/Plaus_run-01/stereo_PI45.wav	2.0	1	2.418
230.593	6.101	SP_W	1.0	n/a	n/a	2.0	3.823	Plaus/Plaus_run-01/stereo_PW28.wav	2.0	0	1.891
236.698	7.419	SP_W	1.0	n/a	n/a	1.0	3.701	Plaus/Plaus_run-01/stereo_PW86.wav	1.0	1	1.6650000000000005
244.12	6.54	SP_C	1.0	n/a	n/a	1.0	0.365	Plaus/Plaus_run-01/CoM05e.wav	1.0	1	1.115
250.675	6.247000000000001	SP_I	2.0	n/a	n/a	2.0	3.074	Plaus/Plaus_run-01/stereo_PI12.wav	2.0	1	2.2030000000000003
