onset	duration	trial_type	correct	window1_response	window1_RT	window2_response	window2_RT	stim_file	calculated_response	calculated_accuracy	calculated_RT
1.0915	6.895	G_F	2.0	n/a	n/a	2.0	4.478	Gram/Gram_run-01/stereo_2MF57U2.wav	2.0	1	5.228
7.9964	7.175	G_F	2.0	n/a	n/a	2.0	2.7230000000000003	Gram/Gram_run-01/stereo_1MF15U3.wav	2.0	1	3.4730000000000003
15.1851	6.5070000000000014	G_G	1.0	n/a	n/a	1.0	3.31	Gram/Gram_run-01/stereo_1MF11G2.wav	1.0	1	2.13
21.7065	6.505	G_C	1.0	n/a	n/a	1.0	0.631	Gram/Gram_run-01/CoM09d.wav	1.0	1	1.381
28.2123	6.9479999999999995	G_F	2.0	n/a	n/a	2.0	4.843999999999999	Gram/Gram_run-01/stereo_2MF68U4.wav	2.0	1	4.1179999999999986
35.1675	5.541	G_P	2.0	n/a	n/a	2.0	3.213	Gram/Gram_run-01/stereo_1MP37U3.wav	2.0	1	2.178
40.7217	5.9479999999999995	G_G	1.0	n/a	n/a	n/a	n/a	Gram/Gram_run-01/stereo_2MF50G1.wav	2.0	0	3.138
46.6761	6.013	G_F	2.0	2.0	0.035	2.0	3.408	Gram/Gram_run-01/stereo_1MF05U1.wav	2.0	1	2.806
52.6972	7.87	G_C	1.0	n/a	n/a	1.0	0.387	Gram/Gram_run-01/CoM01l.wav	1.0	1	1.137
60.5705	6.4979999999999976	G_G	1.0	n/a	n/a	2.0	4.546	Gram/Gram_run-01/stereo_1MF23G4.wav	2.0	0	2.365
67.0753	6.184	G_F	2.0	n/a	n/a	2.0	2.138	Gram/Gram_run-01/stereo_2MF55U2.wav	2.0	1	2.888
73.264	6.83	G_C	1.0	n/a	n/a	2.0	0.56	Gram/Gram_run-01/CoM10l.wav	2.0	0	1.31
80.1023	7.505	G_G	1.0	n/a	n/a	1.0	5.048	Gram/Gram_run-01/stereo_2MP96G4.wav	1.0	1	2.6530000000000005
87.6086	7.1370000000000005	G_G	1.0	n/a	n/a	1.0	5.398	Gram/Gram_run-01/stereo_1MP47G4.wav	1.0	1	2.931
94.748	6.694	G_F	2.0	n/a	n/a	2.0	2.3609999999999998	Gram/Gram_run-01/stereo_2MF61U3.wav	2.0	1	3.111
101.4529	5.39	G_C	1.0	n/a	n/a	1.0	0.624	Gram/Gram_run-01/CoM01d.wav	1.0	1	1.374
106.8569	6.5760000000000005	G_G	1.0	n/a	n/a	1.0	3.4960000000000004	Gram/Gram_run-01/stereo_1MP35G2.wav	1.0	1	2.4920000000000004
113.4451	5.3389999999999995	G_F	2.0	n/a	n/a	n/a	n/a	Gram/Gram_run-01/stereo_2MF69U4.wav	n/a	0	n/a
118.7989	7.94	G_C	1.0	1.0	0.184	1.0	0.451	Gram/Gram_run-01/CoM08l.wav	1.0	1	0.184
126.7476	6.006	G_P	2.0	n/a	n/a	2.0	4.454	Gram/Gram_run-01/stereo_1MP26U1.wav	2.0	1	2.4779999999999998
132.7683	8.422	G_F	2.0	n/a	n/a	2.0	3.4589999999999996	Gram/Gram_run-01/stereo_1MF06U1.wav	2.0	1	2.864
141.1919	7.885	G_P	2.0	n/a	n/a	2.0	3.18	Gram/Gram_run-01/stereo_2MP81U2.wav	2.0	1	2.295
149.082	6.1270000000000024	G_G	1.0	n/a	n/a	2.0	3.2680000000000002	Gram/Gram_run-01/stereo_2MP83G2.wav	2.0	0	2.208
155.2198	5.765	G_C	1.0	n/a	n/a	1.0	0.275	Gram/Gram_run-01/CoM02b.wav	1.0	1	1.025
160.9908	6.706	G_P	2.0	n/a	n/a	2.0	4.725	Gram/Gram_run-01/stereo_2MP93U4.wav	2.0	1	2.325
167.7098	6.61	G_P	2.0	n/a	n/a	2.0	3.904	Gram/Gram_run-01/stereo_1MP28U1.wav	2.0	1	1.7890000000000006
174.3313	6.63	G_C	1.0	n/a	n/a	1.0	0.8490000000000001	Gram/Gram_run-01/CoM04b.wav	1.0	1	1.5990000000000002
180.9695	5.665	G_P	2.0	n/a	n/a	2.0	4.5089999999999995	Gram/Gram_run-01/stereo_1MP27U1.wav	2.0	1	2.5070000000000006
186.6404	7.55	G_G	1.0	n/a	n/a	2.0	4.255	Gram/Gram_run-01/stereo_2MP77G1.wav	2.0	0	2.1559999999999997
194.1961	6.51	G_C	1.0	n/a	n/a	1.0	0.25	Gram/Gram_run-01/CoM03e.wav	1.0	1	1.0
200.7177	6.98	G_P	2.0	n/a	n/a	2.0	4.942	Gram/Gram_run-01/stereo_2MP92U4.wav	2.0	1	2.593
207.7062	7.047999999999999	G_G	1.0	n/a	n/a	1.0	3.429	Gram/Gram_run-01/stereo_1MF12G2.wav	1.0	1	2.3949999999999996
214.7613	5.574	G_F	2.0	n/a	n/a	n/a	n/a	Gram/Gram_run-01/stereo_1MF04U1.wav	n/a	0	n/a
220.3488	5.67	G_C	1.0	2.0	0.376	1.0	0.546	Gram/Gram_run-01/CoM07d.wav	2.0	0	0.376
226.0205	6.6160000000000005	G_P	2.0	n/a	n/a	1.0	3.36	Gram/Gram_run-01/stereo_1MP39U3.wav	1.0	0	2.356
232.6421	5.695	G_P	2.0	n/a	n/a	2.0	3.361	Gram/Gram_run-01/stereo_2MP82U2.wav	2.0	1	2.4400000000000004
238.3464	6.6270000000000024	G_F	2.0	n/a	n/a	2.0	3.891	Gram/Gram_run-01/stereo_1MF13U3.wav	2.0	1	4.641
244.9846	7.145	G_C	1.0	n/a	n/a	1.0	0.43799999999999994	Gram/Gram_run-01/CoM08e.wav	1.0	1	1.188
252.1398	6.805	G_G	1.0	n/a	n/a	2.0	5.25	Gram/Gram_run-01/stereo_1MP41G3.wav	2.0	0	3.944
258.9458	7.519	G_P	2.0	n/a	n/a	2.0	3.7539999999999996	Gram/Gram_run-01/stereo_1MP38U3.wav	2.0	1	2.5149999999999997
