onset	duration	trial_type	correct	window1_response	window1_RT	window2_response	window2_RT	stim_file	calculated_response	calculated_accuracy	calculated_RT
1.0925	3.4539999999999997	P_R	1.0	n/a	n/a	2.0	2.07	Phon/Phon_run-01/stereo_PR01.wav	2.0	0	1.8199999999999998
4.5615	3.767	P_O	1.0	n/a	n/a	1.0	1.133	Phon/Phon_run-01/PC018.wav	1.0	1	0.883
8.3317	3.391	P_O	1.0	n/a	n/a	1.0	1.8780000000000001	Phon/Phon_run-01/PC009.wav	1.0	1	1.6280000000000001
11.7341	4.374	P_C	1.0	n/a	n/a	1.0	0.06	Phon/Phon_run-01/ContS11.wav	1.0	1	0.81
16.1207	3.345	P_U	2.0	n/a	n/a	2.0	1.172	Phon/Phon_run-01/PM002.wav	2.0	1	0.9219999999999999
19.473	4.4510000000000005	P_C	1.0	n/a	n/a	1.0	1.222	Phon/Phon_run-01/ContS21.wav	1.0	1	1.972
23.9275	4.382	P_O	1.0	n/a	n/a	2.0	2.155	Phon/Phon_run-01/PC005.wav	2.0	0	1.9049999999999998
28.314	3.3	P_U	2.0	n/a	n/a	2.0	1.56	Phon/Phon_run-01/stereo_PU26.wav	2.0	1	1.31
31.6165	4.324	P_C	1.0	n/a	n/a	1.0	0.03	Phon/Phon_run-01/ContS03.wav	1.0	1	0.78
35.9529	4.378	P_R	1.0	n/a	n/a	2.0	1.255	Phon/Phon_run-01/stereo_PR29.wav	2.0	0	1.005
40.3393	3.4810000000000003	P_U	2.0	n/a	n/a	2.0	1.758	Phon/Phon_run-01/PM020.wav	2.0	1	1.508
43.8252	4.393	P_O	1.0	n/a	n/a	2.0	1.8219999999999998	Phon/Phon_run-01/PC027.wav	2.0	0	1.5719999999999998
48.2284	4.4	P_R	1.0	n/a	n/a	2.0	1.689	Phon/Phon_run-01/stereo_PR11.wav	2.0	0	1.439
52.6316	3.884	P_C	1.0	n/a	n/a	1.0	1.037	Phon/Phon_run-01/ContS05.wav	1.0	1	1.787
56.5186	3.891	P_U	2.0	n/a	n/a	2.0	1.494	Phon/Phon_run-01/stereo_PU28.wav	2.0	1	1.244
60.4213	4.4	P_O	1.0	n/a	n/a	1.0	2.187	Phon/Phon_run-01/PC013.wav	1.0	1	1.9369999999999998
64.8247	3.513	P_C	1.0	n/a	n/a	1.0	0.6920000000000001	Phon/Phon_run-01/ContS17.wav	1.0	1	1.4420000000000002
68.3439	4.4	P_U	2.0	n/a	n/a	2.0	1.541	Phon/Phon_run-01/PM027.wav	2.0	1	1.291
72.7471	4.4	P_O	1.0	n/a	n/a	2.0	1.376	Phon/Phon_run-01/PC021.wav	2.0	0	1.126
77.1504	4.496	P_C	1.0	n/a	n/a	1.0	1.036	Phon/Phon_run-01/ContS29.wav	1.0	1	1.786
81.6536	3.3680000000000003	P_R	1.0	n/a	n/a	1.0	2.052	Phon/Phon_run-01/stereo_PR25.wav	1.0	1	1.802
85.0239	3.95	P_O	1.0	n/a	n/a	2.0	1.374	Phon/Phon_run-01/PC012.wav	2.0	0	1.124
88.9768	3.95	P_U	2.0	n/a	n/a	2.0	1.4180000000000001	Phon/Phon_run-01/PM003.wav	2.0	1	1.1680000000000001
92.9297	3.939	P_O	1.0	n/a	n/a	2.0	2.099	Phon/Phon_run-01/PC004.wav	2.0	0	1.8490000000000002
96.8826	3.59	P_C	1.0	n/a	n/a	1.0	2.25	Phon/Phon_run-01/ContS27.wav	1.0	1	3.0
100.4851	4.296	P_U	2.0	n/a	n/a	2.0	1.489	Phon/Phon_run-01/stereo_PU21.wav	2.0	1	1.239
104.7882	3.862	P_R	1.0	n/a	n/a	1.0	1.432	Phon/Phon_run-01/stereo_PR26.wav	1.0	1	1.182
108.6576	3.95	P_O	1.0	n/a	n/a	2.0	1.3159999999999998	Phon/Phon_run-01/PC026.wav	2.0	0	1.0659999999999998
112.6107	3.5	P_O	1.0	n/a	n/a	2.0	1.328	Phon/Phon_run-01/PC025.wav	2.0	0	1.078
116.1133	4.013	P_C	1.0	n/a	n/a	1.0	0.073	Phon/Phon_run-01/ContS23.wav	1.0	1	0.823
120.1329	3.792	P_R	1.0	n/a	n/a	2.0	1.755	Phon/Phon_run-01/stereo_PR18.wav	2.0	0	1.505
123.9359	3.346	P_U	2.0	n/a	n/a	2.0	1.5630000000000002	Phon/Phon_run-01/stereo_PU19.wav	2.0	1	1.3130000000000002
127.2885	3.891	P_R	1.0	n/a	n/a	1.0	1.199	Phon/Phon_run-01/stereo_PR03.wav	1.0	1	0.9490000000000001
131.1913	3.355	P_O	1.0	n/a	n/a	2.0	1.177	Phon/Phon_run-01/PC003.wav	2.0	0	0.927
134.5604	3.951	P_C	1.0	n/a	n/a	1.0	1.304	Phon/Phon_run-01/ContS15.wav	1.0	1	2.0540000000000003
138.5144	3.74	P_U	2.0	n/a	n/a	2.0	1.345	Phon/Phon_run-01/stereo_PU16.wav	2.0	1	1.095
142.2671	3.95	P_R	1.0	n/a	n/a	1.0	1.1740000000000002	Phon/Phon_run-01/stereo_PR10.wav	1.0	1	0.9240000000000002
146.22	3.464	P_C	1.0	n/a	n/a	2.0	1.11	Phon/Phon_run-01/ContS09.wav	2.0	0	1.86
149.6892	4.275	P_R	1.0	n/a	n/a	2.0	1.6680000000000001	Phon/Phon_run-01/stereo_PR04.wav	2.0	0	1.4180000000000001
153.9756	3.95	P_U	2.0	n/a	n/a	2.0	1.486	Phon/Phon_run-01/PM023.wav	2.0	1	1.236
157.9284	4.4	P_U	2.0	n/a	n/a	2.0	1.929	Phon/Phon_run-01/PM001.wav	2.0	1	1.679
162.3319	3.665	P_C	1.0	n/a	n/a	1.0	1.419	Phon/Phon_run-01/ContS35.wav	1.0	1	2.169
166.0011	3.463	P_O	1.0	n/a	n/a	1.0	1.702	Phon/Phon_run-01/PC017.wav	1.0	1	1.452
169.4703	4.332	P_R	1.0	n/a	n/a	2.0	1.0859999999999999	Phon/Phon_run-01/stereo_PR19.wav	2.0	0	0.8359999999999999
173.8067	4.083	P_C	1.0	n/a	n/a	1.0	1.557	Phon/Phon_run-01/ContS33.wav	1.0	1	2.307
177.893	3.5	P_R	1.0	n/a	n/a	2.0	2.181	Phon/Phon_run-01/stereo_PR17.wav	2.0	0	1.931
181.3956	4.2669999999999995	P_U	2.0	n/a	n/a	1.0	1.5659999999999998	Phon/Phon_run-01/PM009.wav	1.0	0	1.3159999999999998
185.6658	3.4389999999999996	P_R	1.0	n/a	n/a	2.0	1.5230000000000001	Phon/Phon_run-01/stereo_PR09.wav	2.0	0	1.2730000000000001
