onset	duration	trial_type	correct	window1_response	window1_RT	window2_response	window2_RT	stim_file	calculated_response	calculated_accuracy	calculated_RT
1.084	4.2010000000000005	S_U	2.0	n/a	n/a	2.0	1.7069999999999999	Sem/Sem_run-02/stereo_1SU33A0.wav	2.0	1	1.457
5.287000000000001	3.486	S_U	2.0	n/a	n/a	2.0	1.4569999999999999	Sem/Sem_run-02/stereo_2SU85A0.wav	2.0	1	1.207
8.773	3.8539999999999996	S_H	1.0	n/a	n/a	1.0	1.6440000000000001	Sem/Sem_run-02/stereo_2SH50A0.wav	1.0	1	1.394
12.643	3.454	S_C	1.0	n/a	n/a	1.0	0.08	Sem/Sem_run-02/ContS08.wav	1.0	1	0.83
16.112000000000002	4.33	S_H	1.0	n/a	n/a	1.0	1.766	Sem/Sem_run-02/stereo_1SH10A0.wav	1.0	1	1.516
20.449	3.872	S_L	1.0	n/a	n/a	2.0	1.4480000000000002	Sem/Sem_run-02/stereo_2SL61A0.wav	2.0	0	1.1980000000000002
24.335	3.885	S_L	1.0	n/a	n/a	1.0	1.693	Sem/Sem_run-02/stereo_1SL23A0.wav	1.0	1	1.443
28.222	4.2	S_U	2.0	n/a	n/a	2.0	2.241	Sem/Sem_run-02/stereo_1SU42A0.wav	2.0	1	1.991
32.425	3.321	S_L	1.0	n/a	n/a	1.0	1.2990000000000002	Sem/Sem_run-02/stereo_1SL16A0.wav	1.0	1	1.0490000000000002
35.761	3.59	S_C	1.0	n/a	n/a	1.0	1.238	Sem/Sem_run-02/ContS26.wav	1.0	1	1.988
39.363	4.4	S_H	1.0	n/a	n/a	1.0	2.062	Sem/Sem_run-02/stereo_2SH60A0.wav	1.0	1	1.8119999999999998
43.767	4.311	S_L	1.0	n/a	n/a	2.0	1.91	Sem/Sem_run-02/stereo_2SL75A0.wav	2.0	0	1.66
48.087	3.912	S_H	1.0	n/a	n/a	1.0	1.5190000000000001	Sem/Sem_run-02/stereo_2SH59A0.wav	1.0	1	1.269
52.007	4.4	S_U	2.0	n/a	n/a	2.0	1.9580000000000002	Sem/Sem_run-02/stereo_2SU84A0.wav	2.0	1	1.708
56.41	3.4210000000000003	S_U	2.0	n/a	n/a	2.0	1.4609999999999999	Sem/Sem_run-02/stereo_1SU43A0.wav	2.0	1	1.211
59.846	3.8539999999999996	S_C	1.0	n/a	n/a	1.0	0.7	Sem/Sem_run-02/ContS02.wav	1.0	1	1.45
63.716	4.37	S_L	1.0	n/a	n/a	1.0	1.876	Sem/Sem_run-02/stereo_1SL19A0.wav	1.0	1	1.626
68.086	3.862	S_L	1.0	n/a	n/a	1.0	1.933	Sem/Sem_run-02/stereo_1SL18A0.wav	1.0	1	1.683
71.955	4.462	S_C	1.0	n/a	n/a	1.0	0.29	Sem/Sem_run-02/ContS22.wav	1.0	1	1.04
76.425	3.406	S_L	1.0	n/a	n/a	1.0	1.5390000000000001	Sem/Sem_run-02/stereo_1SL21A0.wav	1.0	1	1.289
79.845	3.355	S_U	2.0	n/a	n/a	2.0	1.5919999999999999	Sem/Sem_run-02/stereo_1SU36A0.wav	2.0	1	1.342
83.214	4.324	S_C	1.0	n/a	n/a	1.0	1.32	Sem/Sem_run-02/ContS04.wav	1.0	1	2.0700000000000003
87.551	4.253	S_L	1.0	n/a	n/a	1.0	1.725	Sem/Sem_run-02/stereo_1SL24A0.wav	1.0	1	1.475
91.804	3.839	S_L	1.0	n/a	n/a	1.0	1.557	Sem/Sem_run-02/stereo_2SL70A0.wav	1.0	1	1.307
95.657	4.395	S_C	1.0	n/a	n/a	1.0	1.538	Sem/Sem_run-02/ContS14.wav	1.0	1	2.2880000000000003
100.06	3.8739999999999997	S_H	1.0	n/a	n/a	1.0	1.228	Sem/Sem_run-02/stereo_1SH09A0.wav	1.0	1	0.978
103.947	3.75	S_U	2.0	n/a	n/a	2.0	1.726	Sem/Sem_run-02/stereo_1SU32A0.wav	2.0	1	1.476
107.699	3.641	S_C	1.0	n/a	n/a	1.0	1.4880000000000002	Sem/Sem_run-02/ContS34.wav	1.0	1	2.2380000000000004
111.352	3.338	S_U	2.0	n/a	n/a	2.0	1.5959999999999999	Sem/Sem_run-02/stereo_1SU31A0.wav	2.0	1	1.346
114.705	3.45	S_L	1.0	n/a	n/a	n/a	n/a	Sem/Sem_run-02/stereo_2SL68A0.wav	1.0	1	2.475
118.158	3.8510000000000004	S_H	1.0	1.0	0.025	1.0	1.3730000000000002	Sem/Sem_run-02/stereo_1SH14A0.wav	1.0	1	1.1230000000000002
122.011	3.459	S_H	1.0	n/a	n/a	1.0	1.315	Sem/Sem_run-02/stereo_1SH01A0.wav	1.0	1	1.065
125.48	3.512	S_C	1.0	n/a	n/a	1.0	0.14800000000000002	Sem/Sem_run-02/ContS16.wav	1.0	1	0.898
128.999	3.489	S_H	1.0	n/a	n/a	1.0	1.159	Sem/Sem_run-02/stereo_1SH12A0.wav	1.0	1	0.909
132.502	3.8489999999999998	S_U	2.0	n/a	n/a	2.0	1.276	Sem/Sem_run-02/stereo_2SU86A0.wav	2.0	1	1.026
136.355	3.46	S_L	1.0	n/a	n/a	1.0	1.66	Sem/Sem_run-02/stereo_1SL28A0.wav	1.0	1	1.41
139.82399999999998	4.53	S_C	1.0	n/a	n/a	1.0	1.571	Sem/Sem_run-02/ContS32.wav	1.0	1	2.3209999999999997
144.361	4.351	S_H	1.0	n/a	n/a	1.0	1.5859999999999999	Sem/Sem_run-02/stereo_2SH52A0.wav	1.0	1	1.336
148.714	3.48	S_H	1.0	n/a	n/a	1.0	1.6369999999999998	Sem/Sem_run-02/stereo_2SH47A0.wav	1.0	1	1.3869999999999998
152.2	3.3	S_H	1.0	n/a	n/a	1.0	1.05	Sem/Sem_run-02/stereo_2SH53A0.wav	1.0	1	0.8
155.503	3.847	S_U	2.0	n/a	n/a	1.0	2.4859999999999998	Sem/Sem_run-02/stereo_1SU39A0.wav	1.0	0	2.236
159.356	3.923	S_C	1.0	n/a	n/a	1.0	1.6380000000000001	Sem/Sem_run-02/ContS10.wav	1.0	1	2.388
163.292	3.7510000000000003	S_U	2.0	n/a	n/a	n/a	n/a	Sem/Sem_run-02/stereo_2SU80A0.wav	n/a	0	n/a
167.045	4.2	S_L	1.0	n/a	n/a	1.0	1.5390000000000001	Sem/Sem_run-02/stereo_2SL66A0.wav	1.0	1	1.289
171.248	3.99	S_C	1.0	n/a	n/a	1.0	0.315	Sem/Sem_run-02/ContS20.wav	1.0	1	1.065
175.252	4.041	S_C	1.0	n/a	n/a	1.0	0.128	Sem/Sem_run-02/ContS28.wav	1.0	1	0.878
179.305	4.2	S_U	2.0	n/a	n/a	2.0	2.438	Sem/Sem_run-02/stereo_2SU89A0.wav	2.0	1	2.188
183.508	4.368	S_H	1.0	n/a	n/a	1.0	1.286	Sem/Sem_run-02/stereo_2SH46A0.wav	1.0	1	1.036
