onset	duration	trial_type	correct	window1_response	window1_RT	window2_response	window2_RT	stim_file	calculated_response	calculated_accuracy	calculated_RT
1.101	3.4539999999999997	P_R	1.0	n/a	n/a	1.0	1.795	Phon/Phon_run-01/stereo_PR01.wav	1.0	1	1.545
4.57	3.767	P_O	1.0	n/a	n/a	1.0	1.079	Phon/Phon_run-01/PC018.wav	1.0	1	0.829
8.339	3.391	P_O	1.0	n/a	n/a	1.0	1.469	Phon/Phon_run-01/PC009.wav	1.0	1	1.219
11.742	4.374	P_C	1.0	n/a	n/a	1.0	0.154	Phon/Phon_run-01/ContS11.wav	1.0	1	0.904
16.129	3.345	P_U	2.0	n/a	n/a	2.0	1.85	Phon/Phon_run-01/PM002.wav	2.0	1	1.6
19.480999999999998	4.4510000000000005	P_C	1.0	n/a	n/a	1.0	0.257	Phon/Phon_run-01/ContS21.wav	1.0	1	1.0070000000000001
23.934	4.382	P_O	1.0	n/a	n/a	1.0	1.11	Phon/Phon_run-01/PC005.wav	1.0	1	0.8600000000000001
28.320999999999998	3.3	P_U	2.0	n/a	n/a	2.0	1.402	Phon/Phon_run-01/stereo_PU26.wav	2.0	1	1.152
31.624000000000002	4.324	P_C	1.0	n/a	n/a	1.0	1.077	Phon/Phon_run-01/ContS03.wav	1.0	1	1.827
35.96	4.378	P_R	1.0	n/a	n/a	1.0	1.06	Phon/Phon_run-01/stereo_PR29.wav	1.0	1	0.81
40.347	3.4810000000000003	P_U	2.0	n/a	n/a	2.0	1.189	Phon/Phon_run-01/PM020.wav	2.0	1	0.9390000000000001
43.833	4.393	P_O	1.0	n/a	n/a	2.0	1.202	Phon/Phon_run-01/PC027.wav	2.0	0	0.952
48.236000000000004	4.4	P_R	1.0	n/a	n/a	1.0	1.052	Phon/Phon_run-01/stereo_PR11.wav	1.0	1	0.802
52.64	3.884	P_C	1.0	n/a	n/a	1.0	0.155	Phon/Phon_run-01/ContS05.wav	1.0	1	0.905
56.526	3.891	P_U	2.0	n/a	n/a	2.0	1.368	Phon/Phon_run-01/stereo_PU28.wav	2.0	1	1.118
60.42899999999999	4.4	P_O	1.0	n/a	n/a	2.0	2.081	Phon/Phon_run-01/PC013.wav	2.0	0	1.831
64.832	3.513	P_C	1.0	n/a	n/a	1.0	0.611	Phon/Phon_run-01/ContS17.wav	1.0	1	1.361
68.351	4.4	P_U	2.0	n/a	n/a	2.0	2.138	Phon/Phon_run-01/PM027.wav	2.0	1	1.888
72.755	4.4	P_O	1.0	n/a	n/a	1.0	1.08	Phon/Phon_run-01/PC021.wav	1.0	1	0.8300000000000001
77.158	4.496	P_C	1.0	n/a	n/a	1.0	0.475	Phon/Phon_run-01/ContS29.wav	1.0	1	1.225
81.66199999999998	3.3680000000000003	P_R	1.0	n/a	n/a	2.0	1.8359999999999999	Phon/Phon_run-01/stereo_PR25.wav	2.0	0	1.5859999999999999
85.031	3.95	P_O	1.0	n/a	n/a	1.0	1.17	Phon/Phon_run-01/PC012.wav	1.0	1	0.9199999999999999
88.984	3.95	P_U	2.0	n/a	n/a	2.0	1.3319999999999999	Phon/Phon_run-01/PM003.wav	2.0	1	1.0819999999999999
92.93700000000001	3.939	P_O	1.0	n/a	n/a	2.0	2.535	Phon/Phon_run-01/PC004.wav	2.0	0	2.285
96.89	3.59	P_C	1.0	n/a	n/a	1.0	0.043	Phon/Phon_run-01/ContS27.wav	1.0	1	0.793
100.492	4.296	P_U	2.0	n/a	n/a	1.0	2.048	Phon/Phon_run-01/stereo_PU21.wav	1.0	0	1.798
104.796	3.862	P_R	1.0	n/a	n/a	1.0	1.1059999999999999	Phon/Phon_run-01/stereo_PR26.wav	1.0	1	0.8559999999999999
108.665	3.95	P_O	1.0	n/a	n/a	2.0	1.399	Phon/Phon_run-01/PC026.wav	2.0	0	1.149
112.618	3.5	P_O	1.0	n/a	n/a	1.0	1.6059999999999999	Phon/Phon_run-01/PC025.wav	1.0	1	1.3559999999999999
116.12100000000001	4.013	P_C	1.0	n/a	n/a	1.0	0.28300000000000003	Phon/Phon_run-01/ContS23.wav	1.0	1	1.033
120.141	3.792	P_R	1.0	n/a	n/a	1.0	1.0590000000000002	Phon/Phon_run-01/stereo_PR18.wav	1.0	1	0.8090000000000002
123.944	3.346	P_U	2.0	n/a	n/a	2.0	1.537	Phon/Phon_run-01/stereo_PU19.wav	2.0	1	1.287
127.296	3.891	P_R	1.0	n/a	n/a	1.0	1.234	Phon/Phon_run-01/stereo_PR03.wav	1.0	1	0.984
131.19899999999998	3.355	P_O	1.0	n/a	n/a	1.0	1.28	Phon/Phon_run-01/PC003.wav	1.0	1	1.03
134.56799999999998	3.951	P_C	1.0	n/a	n/a	1.0	0.077	Phon/Phon_run-01/ContS15.wav	1.0	1	0.827
138.52100000000002	3.74	P_U	2.0	n/a	n/a	2.0	1.21	Phon/Phon_run-01/stereo_PU16.wav	2.0	1	0.96
142.274	3.95	P_R	1.0	n/a	n/a	1.0	1.334	Phon/Phon_run-01/stereo_PR10.wav	1.0	1	1.084
146.227	3.464	P_C	1.0	n/a	n/a	1.0	0.057	Phon/Phon_run-01/ContS09.wav	1.0	1	0.807
149.696	4.275	P_R	1.0	n/a	n/a	1.0	1.048	Phon/Phon_run-01/stereo_PR04.wav	1.0	1	0.798
153.983	3.95	P_U	2.0	n/a	n/a	2.0	1.297	Phon/Phon_run-01/PM023.wav	2.0	1	1.047
157.936	4.4	P_U	2.0	n/a	n/a	2.0	2.261	Phon/Phon_run-01/PM001.wav	2.0	1	2.011
162.339	3.665	P_C	1.0	n/a	n/a	1.0	0.031	Phon/Phon_run-01/ContS35.wav	1.0	1	0.781
166.00900000000001	3.463	P_O	1.0	n/a	n/a	1.0	1.29	Phon/Phon_run-01/PC017.wav	1.0	1	1.04
169.47799999999995	4.332	P_R	1.0	n/a	n/a	1.0	1.43	Phon/Phon_run-01/stereo_PR19.wav	1.0	1	1.18
173.815	4.083	P_C	1.0	n/a	n/a	1.0	0.725	Phon/Phon_run-01/ContS33.wav	1.0	1	1.475
177.90099999999995	3.5	P_R	1.0	n/a	n/a	1.0	1.2890000000000001	Phon/Phon_run-01/stereo_PR17.wav	1.0	1	1.0390000000000001
181.40400000000002	4.2669999999999995	P_U	2.0	n/a	n/a	2.0	2.418	Phon/Phon_run-01/PM009.wav	2.0	1	2.168
185.674	3.4389999999999996	P_R	1.0	n/a	n/a	1.0	1.188	Phon/Phon_run-01/stereo_PR09.wav	1.0	1	0.938
