onset	duration	trial_type	correct	window1_response	window1_RT	window2_response	window2_RT	stim_file	calculated_response	calculated_accuracy	calculated_RT
1.0937	6.343	SP_S	1.0	n/a	n/a	1.0	3.8360000000000003	Plaus/Plaus_run-02/stereo_PC37.wav	1.0	1	1.6749999999999994
7.4482	6.345	SP_W	1.0	n/a	n/a	2.0	4.09	Plaus/Plaus_run-02/stereo_PW74.wav	2.0	0	2.121
13.8029	6.095	SP_C	1.0	n/a	n/a	1.0	0.213	Plaus/Plaus_run-02/CoM10d.wav	1.0	1	0.963
19.9073	6.401	SP_I	2.0	n/a	n/a	1.0	3.03	Plaus/Plaus_run-02/stereo_PI56.wav	1.0	0	2.1629999999999994
26.313000000000002	6.407	SP_W	1.0	n/a	n/a	2.0	4.051	Plaus/Plaus_run-02/stereo_PW39.wav	2.0	0	2.024
32.7344	6.8420000000000005	SP_I	2.0	n/a	n/a	1.0	3.853	Plaus/Plaus_run-02/stereo_PI44.wav	1.0	0	1.6560000000000001
39.5893	7.7	SP_C	1.0	n/a	n/a	1.0	1.787	Plaus/Plaus_run-02/CoM07e.wav	1.0	1	2.537
47.295	5.756	SP_S	1.0	n/a	n/a	1.0	2.77	Plaus/Plaus_run-02/stereo_PC03.wav	1.0	1	1.8280000000000003
53.0655	7.372000000000001	SP_S	1.0	n/a	n/a	1.0	3.498	Plaus/Plaus_run-02/stereo_PC82.wav	1.0	1	1.443
60.4386	6.095	SP_C	1.0	n/a	n/a	1.0	1.5319999999999998	Plaus/Plaus_run-02/CoM04d.wav	1.0	1	2.282
66.5431	6.303	SP_I	2.0	n/a	n/a	2.0	3.1010000000000004	Plaus/Plaus_run-02/stereo_PI23.wav	2.0	1	2.117
72.8488	5.655	SP_I	2.0	n/a	n/a	1.0	2.636	Plaus/Plaus_run-02/stereo_PI22.wav	1.0	0	1.717
78.5141	6.85	SP_C	1.0	n/a	n/a	1.0	1.306	Plaus/Plaus_run-02/CoM08d.wav	1.0	1	2.056
85.3693	6.9179999999999975	SP_S	1.0	n/a	n/a	1.0	3.958	Plaus/Plaus_run-02/stereo_PC79.wav	1.0	1	1.7120000000000006
92.2921	5.233	SP_I	2.0	n/a	n/a	2.0	3.181	Plaus/Plaus_run-02/stereo_PI21.wav	2.0	1	2.141
97.5292	6.385	SP_S	1.0	n/a	n/a	1.0	2.4130000000000003	Plaus/Plaus_run-02/stereo_PC46.wav	1.0	1	1.4510000000000003
103.9184	6.282	SP_W	1.0	n/a	n/a	2.0	3.6310000000000002	Plaus/Plaus_run-02/stereo_PW64.wav	2.0	0	2.525
110.2063	7.69	SP_C	1.0	n/a	n/a	1.0	1.77	Plaus/Plaus_run-02/CoM04e.wav	1.0	1	2.52
117.9072	6.316	SP_I	2.0	n/a	n/a	2.0	4.2669999999999995	Plaus/Plaus_run-02/stereo_PI34.wav	2.0	1	2.1100000000000003
124.2283	5.47	SP_C	1.0	n/a	n/a	1.0	1.1079999999999999	Plaus/Plaus_run-02/CoM10b.wav	1.0	1	1.858
129.7001	5.636	SP_I	2.0	n/a	n/a	1.0	2.911	Plaus/Plaus_run-02/stereo_PI55.wav	1.0	0	2.072
135.3387	7.461	SP_W	1.0	n/a	n/a	1.0	3.833	Plaus/Plaus_run-02/stereo_PW83.wav	1.0	1	1.8290000000000006
142.8107	5.48	SP_C	1.0	n/a	n/a	1.0	1.287	Plaus/Plaus_run-02/CoM01b.wav	1.0	1	2.037
148.298	6.2120000000000015	SP_W	1.0	n/a	n/a	1.0	2.399	Plaus/Plaus_run-02/stereo_PW08.wav	1.0	1	1.538
154.5192	4.694	SP_W	1.0	n/a	n/a	n/a	n/a	Plaus/Plaus_run-02/stereo_PW07.wav	1.0	1	3.378
159.2226	6.197	SP_I	2.0	1.0	0.309	n/a	n/a	Plaus/Plaus_run-02/stereo_PI43.wav	n/a	0	n/a
165.4272	6.1979999999999995	SP_S	1.0	n/a	n/a	1.0	2.778	Plaus/Plaus_run-02/stereo_PC59.wav	1.0	1	1.7770000000000001
171.6318	7.345	SP_C	1.0	n/a	n/a	1.0	1.8130000000000002	Plaus/Plaus_run-02/CoM05l.wav	1.0	1	2.5629999999999997
178.9871	5.2429999999999986	SP_S	1.0	n/a	n/a	2.0	2.358	Plaus/Plaus_run-02/stereo_PC02.wav	2.0	0	1.479
184.2409	6.82	SP_C	1.0	n/a	n/a	1.0	1.703	Plaus/Plaus_run-02/CoM09l.wav	1.0	1	2.4530000000000003
191.0636	7.183	SP_I	2.0	n/a	n/a	2.0	3.488	Plaus/Plaus_run-02/stereo_PI78.wav	2.0	1	1.5699999999999998
198.2522	6.727	SP_W	1.0	n/a	n/a	1.0	3.687	Plaus/Plaus_run-02/stereo_PW40.wav	1.0	1	1.4539999999999997
204.9904	5.181	SP_S	1.0	n/a	n/a	2.0	3.997	Plaus/Plaus_run-02/stereo_PC60.wav	2.0	0	2.707
210.1775	7.135	SP_W	1.0	n/a	n/a	1.0	4.579	Plaus/Plaus_run-02/stereo_PW73.wav	1.0	1	2.6469999999999994
217.3172	6.76	SP_C	1.0	n/a	n/a	1.0	0.036000000000000004	Plaus/Plaus_run-02/CoM04l.wav	1.0	1	0.786
224.0887	6.682	SP_I	2.0	n/a	n/a	2.0	4.035	Plaus/Plaus_run-02/stereo_PI75.wav	2.0	1	2.039
230.7769	6.002999999999999	SP_W	1.0	n/a	n/a	1.0	3.287	Plaus/Plaus_run-02/stereo_PW63.wav	1.0	1	2.1399999999999997
236.7825	5.0760000000000005	SP_W	1.0	n/a	n/a	1.0	2.436	Plaus/Plaus_run-02/stereo_PW05.wav	1.0	1	1.658
241.8694	6.218	SP_S	1.0	n/a	n/a	n/a	n/a	Plaus/Plaus_run-02/stereo_PC69.wav	n/a	0	n/a
248.0918	6.569	SP_S	1.0	n/a	n/a	1.0	3.764	Plaus/Plaus_run-02/stereo_PC70.wav	1.0	1	1.888
