onset	duration	trial_type	correct	window1_response	window1_RT	window2_response	window2_RT	stim_file	calculated_response	calculated_accuracy	calculated_RT
1.0924	3.5	P_R	1.0	n/a	n/a	1.0	1.84	Phon/Phon_run-02/stereo_PR20.wav	1.0	1	1.59
4.595	4.235	P_O	1.0	n/a	n/a	1.0	1.913	Phon/Phon_run-02/PC034.wav	1.0	1	1.663
8.8325	3.375	P_R	1.0	n/a	n/a	1.0	1.771	Phon/Phon_run-02/stereo_PR13.wav	1.0	1	1.521
12.2183	3.474	P_C	1.0	n/a	n/a	1.0	1.761	Phon/Phon_run-02/ContS12.wav	1.0	1	2.511
15.7041	3.875	P_U	2.0	n/a	n/a	2.0	1.158	Phon/Phon_run-02/PM025.wav	2.0	1	0.9079999999999999
19.5903	3.726	P_R	1.0	n/a	n/a	1.0	1.838	Phon/Phon_run-02/stereo_PR22.wav	1.0	1	1.588
23.3263	3.451	P_O	1.0	n/a	n/a	n/a	n/a	Phon/Phon_run-02/PC014.wav	n/a	0	n/a
26.7799	3.779	P_C	1.0	n/a	n/a	1.0	1.314	Phon/Phon_run-02/ContS02.wav	1.0	1	2.064
30.566	3.821	P_U	2.0	n/a	n/a	1.0	1.445	Phon/Phon_run-02/stereo_PU18.wav	1.0	0	1.195
34.402	3.49	P_U	2.0	n/a	n/a	n/a	n/a	Phon/Phon_run-02/stereo_PU12.wav	n/a	0	n/a
37.9046	4.38	P_C	1.0	n/a	n/a	1.0	1.464	Phon/Phon_run-02/ContS32.wav	1.0	1	2.214
42.291000000000004	4.0969999999999995	P_R	1.0	n/a	n/a	1.0	2.0340000000000003	Phon/Phon_run-02/stereo_PR16.wav	1.0	1	1.7840000000000003
46.394	3.5	P_O	1.0	n/a	n/a	1.0	1.6680000000000001	Phon/Phon_run-02/PC022.wav	1.0	1	1.418
49.8966	4.0760000000000005	P_R	1.0	n/a	n/a	1.0	1.679	Phon/Phon_run-02/stereo_PR08.wav	1.0	1	1.429
53.983000000000004	3.5	P_O	1.0	n/a	n/a	1.0	1.643	Phon/Phon_run-02/PC028.wav	1.0	1	1.393
57.4856	3.5	P_U	2.0	n/a	n/a	2.0	2.0869999999999997	Phon/Phon_run-02/stereo_PU27.wav	2.0	1	1.8370000000000002
60.9881	3.819	P_C	1.0	n/a	n/a	1.0	1.288	Phon/Phon_run-02/ContS06.wav	1.0	1	2.0380000000000003
64.8086	4.25	P_O	1.0	n/a	n/a	1.0	1.7380000000000002	Phon/Phon_run-02/PC031.wav	1.0	1	1.4880000000000002
69.062	3.662	P_C	1.0	n/a	n/a	1.0	1.882	Phon/Phon_run-02/ContS36.wav	1.0	1	2.6319999999999997
72.7312	3.823	P_O	1.0	n/a	n/a	1.0	1.742	Phon/Phon_run-02/PC023.wav	1.0	1	1.492
76.5674	4.323	P_C	1.0	n/a	n/a	1.0	1.6369999999999998	Phon/Phon_run-02/ContS24.wav	1.0	1	2.3869999999999996
80.9038	3.865	P_U	2.0	n/a	n/a	2.0	1.5859999999999999	Phon/Phon_run-02/PM004.wav	2.0	1	1.336
84.7733	3.875	P_O	1.0	n/a	n/a	1.0	1.841	Phon/Phon_run-02/PC007.wav	1.0	1	1.591
88.6594	4.25	P_U	2.0	n/a	n/a	2.0	2.241	Phon/Phon_run-02/PM011.wav	2.0	1	1.991
92.9126	4.362	P_C	1.0	n/a	n/a	1.0	1.466	Phon/Phon_run-02/ContS30.wav	1.0	1	2.216
97.2825	3.875	P_O	1.0	n/a	n/a	2.0	2.3680000000000003	Phon/Phon_run-02/PC030.wav	2.0	0	2.1180000000000003
101.1687	3.3360000000000003	P_R	1.0	n/a	n/a	1.0	1.766	Phon/Phon_run-02/stereo_PR05.wav	1.0	1	1.516
104.5077	4.113	P_U	2.0	n/a	n/a	2.0	1.751	Phon/Phon_run-02/stereo_PU01.wav	2.0	1	1.501
108.6273	4.1739999999999995	P_U	2.0	n/a	n/a	2.0	1.412	Phon/Phon_run-02/PM029.wav	2.0	1	1.162
112.8137	3.4539999999999997	P_C	1.0	n/a	n/a	1.0	1.215	Phon/Phon_run-02/ContS08.wav	1.0	1	1.965
116.2828	3.446	P_R	1.0	n/a	n/a	n/a	n/a	Phon/Phon_run-02/stereo_PR30.wav	1.0	1	2.8920000000000003
119.7352	3.85	P_R	1.0	1.0	0.446	1.0	2.247	Phon/Phon_run-02/stereo_PR07.wav	1.0	1	1.9969999999999999
123.588	3.438	P_U	2.0	n/a	n/a	1.0	1.9869999999999999	Phon/Phon_run-02/stereo_PU02.wav	1.0	0	1.737
127.0406	3.915	P_C	1.0	n/a	n/a	1.0	1.6980000000000002	Phon/Phon_run-02/ContS20.wav	1.0	1	2.4480000000000004
130.9601	3.487	P_U	2.0	n/a	n/a	1.0	1.423	Phon/Phon_run-02/PM021.wav	1.0	0	1.173
134.46200000000002	3.965	P_C	1.0	n/a	n/a	1.0	1.317	Phon/Phon_run-02/ContS26.wav	1.0	1	2.067
138.4315	3.792	P_R	1.0	n/a	n/a	1.0	1.516	Phon/Phon_run-02/stereo_PR31.wav	1.0	1	1.266
142.2343	4.135	P_O	1.0	n/a	n/a	1.0	2.58	Phon/Phon_run-02/PC024.wav	1.0	1	2.33
146.3717	3.875	P_U	2.0	n/a	n/a	2.0	2.117	Phon/Phon_run-02/PM010.wav	2.0	1	1.867
150.2579	3.875	P_O	1.0	n/a	n/a	2.0	2.002	Phon/Phon_run-02/PC015.wav	2.0	0	1.7519999999999998
154.144	4.245	P_C	1.0	n/a	n/a	1.0	1.3659999999999999	Phon/Phon_run-02/ContS14.wav	1.0	1	2.116
158.3971	3.854	P_R	1.0	n/a	n/a	1.0	1.5290000000000001	Phon/Phon_run-02/stereo_PR14.wav	1.0	1	1.279
162.2662	4.239	P_O	1.0	n/a	n/a	1.0	1.5230000000000001	Phon/Phon_run-02/PC008.wav	1.0	1	1.273
166.5192	4.25	P_U	2.0	n/a	n/a	1.0	1.581	Phon/Phon_run-02/stereo_PU11.wav	1.0	0	1.331
170.7726	3.523	P_C	1.0	n/a	n/a	1.0	1.508	Phon/Phon_run-02/ContS18.wav	1.0	1	2.258
174.3085	3.429	P_O	1.0	n/a	n/a	2.0	1.742	Phon/Phon_run-02/PC006.wav	2.0	0	1.492
177.7443	4.18	P_R	1.0	n/a	n/a	2.0	2.3890000000000002	Phon/Phon_run-02/stereo_PR32.wav	2.0	0	2.139
181.9307	4.104	P_R	1.0	n/a	n/a	1.0	1.208	Phon/Phon_run-02/stereo_PR24.wav	1.0	1	0.958
