onset	duration	trial_type	correct	window1_response	window1_RT	window2_response	window2_RT	stim_file	calculated_response	calculated_accuracy	calculated_RT
1.084	7.034	SP_W	1.0	n/a	n/a	1.0	4.331	Plaus/Plaus_run-01/stereo_PW85.wav	1.0	1	2.184
8.122	5.641	SP_I	2.0	n/a	n/a	2.0	2.522	Plaus/Plaus_run-01/stereo_PI11.wav	2.0	1	1.6019999999999996
13.777	6.77	SP_C	1.0	n/a	n/a	1.0	0.919	Plaus/Plaus_run-01/CoM08b.wav	1.0	1	1.669
20.549	7.327000000000001	SP_W	1.0	n/a	n/a	1.0	3.5780000000000003	Plaus/Plaus_run-01/stereo_PW72.wav	1.0	1	1.5980000000000003
27.888	6.145	SP_C	1.0	n/a	n/a	1.0	0.925	Plaus/Plaus_run-01/CoM05d.wav	1.0	1	1.675
34.042	5.181	SP_I	2.0	n/a	n/a	2.0	2.91	Plaus/Plaus_run-01/stereo_PI65.wav	2.0	1	1.9680000000000002
39.23	5.092	SP_S	1.0	n/a	n/a	1.0	2.927	Plaus/Plaus_run-01/stereo_PC13.wav	1.0	1	1.864
44.333	7.355	SP_C	1.0	n/a	n/a	1.0	0.586	Plaus/Plaus_run-01/CoM06l.wav	1.0	1	1.336
51.68899999999999	7.47	SP_I	2.0	n/a	n/a	2.0	4.675	Plaus/Plaus_run-01/stereo_PI90.wav	2.0	1	2.504
59.161	7.399	SP_S	1.0	n/a	n/a	1.0	3.652	Plaus/Plaus_run-01/stereo_PC35.wav	1.0	1	1.3849999999999998
66.567	5.685	SP_S	1.0	n/a	n/a	1.0	3.127	Plaus/Plaus_run-01/stereo_PC47.wav	1.0	1	2.1179999999999994
72.255	5.669	SP_W	1.0	n/a	n/a	2.0	1.997	Plaus/Plaus_run-01/stereo_PW19.wav	2.0	0	0.991
77.926	7.9	SP_C	1.0	n/a	n/a	1.0	0.084	Plaus/Plaus_run-01/CoM03l.wav	1.0	1	0.8340000000000001
85.83200000000002	5.145	SP_I	2.0	n/a	n/a	2.0	2.99	Plaus/Plaus_run-01/stereo_PI09.wav	2.0	1	1.9820000000000004
90.986	6.9170000000000025	SP_W	1.0	n/a	n/a	2.0	3.992	Plaus/Plaus_run-01/stereo_PW30.wav	2.0	0	1.872
97.908	5.738	SP_S	1.0	n/a	n/a	2.0	3.274	Plaus/Plaus_run-01/stereo_PC14.wav	2.0	0	2.103
103.662	6.276	SP_W	1.0	n/a	n/a	1.0	3.187	Plaus/Plaus_run-01/stereo_PW50.wav	1.0	1	2.365
109.95	5.49	SP_C	1.0	n/a	n/a	1.0	0.295	Plaus/Plaus_run-01/CoM03d.wav	1.0	1	1.045
115.454	5.7	SP_I	2.0	n/a	n/a	2.0	2.75	Plaus/Plaus_run-01/stereo_PI67.wav	2.0	1	1.859
121.159	7.237	SP_S	1.0	n/a	n/a	1.0	3.664	Plaus/Plaus_run-01/stereo_PC68.wav	1.0	1	1.6979999999999995
128.398	6.49	SP_C	1.0	n/a	n/a	1.0	0.7140000000000001	Plaus/Plaus_run-01/CoM03b.wav	1.0	1	1.464
134.903	6.25	SP_W	1.0	n/a	n/a	2.0	2.472	Plaus/Plaus_run-01/stereo_PW61.wav	2.0	0	1.492
141.157	6.952999999999999	SP_I	2.0	n/a	n/a	2.0	4.262	Plaus/Plaus_run-01/stereo_PI32.wav	2.0	1	2.0969999999999995
148.113	7.085	SP_C	1.0	n/a	n/a	1.0	1.002	Plaus/Plaus_run-01/CoM02e.wav	1.0	1	1.7519999999999998
155.201	6.3610000000000015	SP_S	1.0	n/a	n/a	1.0	3.714	Plaus/Plaus_run-01/stereo_PC24.wav	1.0	1	1.456
161.57299999999995	5.1110000000000015	SP_W	1.0	n/a	n/a	2.0	3.079	Plaus/Plaus_run-01/stereo_PW53.wav	2.0	0	2.065
166.69400000000005	6.2860000000000005	SP_I	2.0	n/a	n/a	2.0	3.213	Plaus/Plaus_run-01/stereo_PI42.wav	2.0	1	1.0170000000000003
172.982	6.577000000000001	SP_S	1.0	n/a	n/a	1.0	3.873	Plaus/Plaus_run-01/stereo_PC57.wav	1.0	1	2.678
179.57	5.273	SP_W	1.0	n/a	n/a	2.0	3.547	Plaus/Plaus_run-01/stereo_PW18.wav	2.0	0	2.38
184.857	5.77	SP_C	1.0	n/a	n/a	1.0	0.163	Plaus/Plaus_run-01/CoM09b.wav	1.0	1	0.9129999999999999
190.629	6.731	SP_S	1.0	n/a	n/a	1.0	4.002	Plaus/Plaus_run-01/stereo_PC26.wav	1.0	1	1.902
197.367	7.212999999999999	SP_I	2.0	n/a	n/a	2.0	3.664	Plaus/Plaus_run-01/stereo_PI33.wav	2.0	1	1.6809999999999996
204.58900000000003	5.181	SP_S	1.0	n/a	n/a	1.0	2.2880000000000003	Plaus/Plaus_run-01/stereo_PC01.wav	1.0	1	1.3470000000000004
209.777	6.238	SP_S	1.0	n/a	n/a	2.0	3.576	Plaus/Plaus_run-01/stereo_PC36.wav	2.0	0	1.5299999999999998
216.015	7.73	SP_C	1.0	n/a	n/a	1.0	0.17800000000000002	Plaus/Plaus_run-01/CoM10e.wav	1.0	1	0.9279999999999999
223.754	6.843	SP_I	2.0	n/a	n/a	2.0	3.643	Plaus/Plaus_run-01/stereo_PI45.wav	2.0	1	1.5160000000000005
230.609	6.101	SP_W	1.0	n/a	n/a	1.0	3.567	Plaus/Plaus_run-01/stereo_PW28.wav	1.0	1	1.6349999999999991
236.71400000000003	7.419	SP_W	1.0	n/a	n/a	1.0	3.77	Plaus/Plaus_run-01/stereo_PW86.wav	1.0	1	1.7340000000000004
244.136	6.54	SP_C	1.0	n/a	n/a	1.0	0.113	Plaus/Plaus_run-01/CoM05e.wav	1.0	1	0.863
250.691	6.247000000000001	SP_I	2.0	n/a	n/a	2.0	2.837	Plaus/Plaus_run-01/stereo_PI12.wav	2.0	1	1.966
