onset	duration	trial_type	correct	window1_response	window1_RT	window2_response	window2_RT	stim_file	calculated_response	calculated_accuracy	calculated_RT
1.084	3.5	P_R	1.0	n/a	n/a	1.0	1.405	Phon/Phon_run-02/stereo_PR20.wav	1.0	1	1.155
4.587	4.235	P_O	1.0	n/a	n/a	1.0	1.454	Phon/Phon_run-02/PC034.wav	1.0	1	1.204
8.823	3.375	P_R	1.0	n/a	n/a	1.0	1.234	Phon/Phon_run-02/stereo_PR13.wav	1.0	1	0.984
12.209000000000001	3.474	P_C	1.0	1.0	0.675	1.0	0.496	Phon/Phon_run-02/ContS12.wav	1.0	1	0.675
15.695	3.875	P_U	2.0	n/a	n/a	2.0	1.038	Phon/Phon_run-02/PM025.wav	2.0	1	0.788
19.582	3.726	P_R	1.0	n/a	n/a	1.0	1.17	Phon/Phon_run-02/stereo_PR22.wav	1.0	1	0.9199999999999999
23.318	3.451	P_O	1.0	n/a	n/a	1.0	1.021	Phon/Phon_run-02/PC014.wav	1.0	1	0.7709999999999999
26.77	3.779	P_C	1.0	1.0	0.429	1.0	0.22	Phon/Phon_run-02/ContS02.wav	1.0	1	0.429
30.557	3.821	P_U	2.0	n/a	n/a	2.0	1.489	Phon/Phon_run-02/stereo_PU18.wav	2.0	1	1.239
34.393	3.49	P_U	2.0	n/a	n/a	2.0	1.406	Phon/Phon_run-02/stereo_PU12.wav	2.0	1	1.156
37.896	4.38	P_C	1.0	1.0	0.5710000000000001	1.0	0.36200000000000004	Phon/Phon_run-02/ContS32.wav	1.0	1	0.5710000000000001
42.282	4.0969999999999995	P_R	1.0	n/a	n/a	1.0	1.165	Phon/Phon_run-02/stereo_PR16.wav	1.0	1	0.915
46.385	3.5	P_O	1.0	n/a	n/a	1.0	1.474	Phon/Phon_run-02/PC022.wav	1.0	1	1.224
49.88800000000001	4.0760000000000005	P_R	1.0	n/a	n/a	1.0	1.506	Phon/Phon_run-02/stereo_PR08.wav	1.0	1	1.256
53.975	3.5	P_O	1.0	n/a	n/a	1.0	1.5390000000000001	Phon/Phon_run-02/PC028.wav	1.0	1	1.289
57.477	3.5	P_U	2.0	n/a	n/a	1.0	1.331	Phon/Phon_run-02/stereo_PU27.wav	1.0	0	1.081
60.98	3.819	P_C	1.0	n/a	n/a	1.0	0.308	Phon/Phon_run-02/ContS06.wav	1.0	1	1.058
64.79899999999999	4.25	P_O	1.0	n/a	n/a	1.0	1.925	Phon/Phon_run-02/PC031.wav	1.0	1	1.675
69.053	3.662	P_C	1.0	1.0	0.556	1.0	0.20199999999999999	Phon/Phon_run-02/ContS36.wav	1.0	1	0.556
72.722	3.823	P_O	1.0	n/a	n/a	2.0	2.149	Phon/Phon_run-02/PC023.wav	2.0	0	1.899
76.558	4.323	P_C	1.0	1.0	0.635	1.0	0.526	Phon/Phon_run-02/ContS24.wav	1.0	1	0.635
80.895	3.865	P_U	2.0	n/a	n/a	2.0	2.338	Phon/Phon_run-02/PM004.wav	2.0	1	2.088
84.765	3.875	P_O	1.0	n/a	n/a	1.0	1.246	Phon/Phon_run-02/PC007.wav	1.0	1	0.996
88.65100000000002	4.25	P_U	2.0	n/a	n/a	2.0	1.7009999999999998	Phon/Phon_run-02/PM011.wav	2.0	1	1.4509999999999998
92.904	4.362	P_C	1.0	1.0	0.542	1.0	0.515	Phon/Phon_run-02/ContS30.wav	1.0	1	0.542
97.274	3.875	P_O	1.0	n/a	n/a	1.0	1.4240000000000002	Phon/Phon_run-02/PC030.wav	1.0	1	1.1740000000000002
101.16	3.3360000000000003	P_R	1.0	n/a	n/a	1.0	1.151	Phon/Phon_run-02/stereo_PR05.wav	1.0	1	0.901
104.49600000000001	4.113	P_U	2.0	n/a	n/a	2.0	1.095	Phon/Phon_run-02/stereo_PU01.wav	2.0	1	0.845
108.616	4.1739999999999995	P_U	2.0	n/a	n/a	1.0	1.59	Phon/Phon_run-02/PM029.wav	1.0	0	1.34
112.803	3.4539999999999997	P_C	1.0	1.0	0.58	1.0	0.49700000000000005	Phon/Phon_run-02/ContS08.wav	1.0	1	0.58
116.272	3.446	P_R	1.0	n/a	n/a	1.0	1.285	Phon/Phon_run-02/stereo_PR30.wav	1.0	1	1.035
119.725	3.85	P_R	1.0	n/a	n/a	1.0	1.273	Phon/Phon_run-02/stereo_PR07.wav	1.0	1	1.023
123.57799999999999	3.438	P_U	2.0	n/a	n/a	2.0	1.42	Phon/Phon_run-02/stereo_PU02.wav	2.0	1	1.17
127.03	3.915	P_C	1.0	1.0	0.569	1.0	0.431	Phon/Phon_run-02/ContS20.wav	1.0	1	0.569
130.95	3.487	P_U	2.0	n/a	n/a	1.0	1.214	Phon/Phon_run-02/PM021.wav	1.0	0	0.964
134.452	3.965	P_C	1.0	n/a	n/a	1.0	0.215	Phon/Phon_run-02/ContS26.wav	1.0	1	0.965
138.422	3.792	P_R	1.0	n/a	n/a	2.0	1.505	Phon/Phon_run-02/stereo_PR31.wav	2.0	0	1.255
142.225	4.135	P_O	1.0	n/a	n/a	1.0	2.6910000000000003	Phon/Phon_run-02/PC024.wav	1.0	1	2.4410000000000003
146.362	3.875	P_U	2.0	n/a	n/a	n/a	n/a	Phon/Phon_run-02/PM010.wav	1.0	0	3.0300000000000002
150.248	3.875	P_O	1.0	1.0	0.155	2.0	1.253	Phon/Phon_run-02/PC015.wav	2.0	0	1.003
154.134	4.245	P_C	1.0	n/a	n/a	1.0	0.5760000000000001	Phon/Phon_run-02/ContS14.wav	1.0	1	1.326
158.387	3.854	P_R	1.0	n/a	n/a	1.0	1.285	Phon/Phon_run-02/stereo_PR14.wav	1.0	1	1.035
162.257	4.239	P_O	1.0	n/a	n/a	2.0	1.365	Phon/Phon_run-02/PC008.wav	2.0	0	1.115
166.51	4.25	P_U	2.0	n/a	n/a	2.0	1.38	Phon/Phon_run-02/stereo_PU11.wav	2.0	1	1.13
170.763	3.523	P_C	1.0	1.0	0.542	1.0	0.479	Phon/Phon_run-02/ContS18.wav	1.0	1	0.542
174.299	3.429	P_O	1.0	n/a	n/a	2.0	1.3559999999999999	Phon/Phon_run-02/PC006.wav	2.0	0	1.106
177.735	4.18	P_R	1.0	n/a	n/a	1.0	1.43	Phon/Phon_run-02/stereo_PR32.wav	1.0	1	1.18
181.922	4.104	P_R	1.0	n/a	n/a	1.0	1.3030000000000002	Phon/Phon_run-02/stereo_PR24.wav	1.0	1	1.0530000000000002
