onset	duration	trial_type	correct	window1_response	window1_RT	window2_response	window2_RT	stim_file	calculated_response	calculated_accuracy	calculated_RT
1.085	4.2	S_U	2.0	n/a	n/a	1.0	1.587	Sem/Sem_run-01/stereo_1SU41A0.wav	1.0	0	1.337
5.2879999999999985	3.596	S_C	1.0	n/a	n/a	1.0	0.154	Sem/Sem_run-01/ContS29.wav	1.0	1	0.904
8.891	3.425	S_U	2.0	n/a	n/a	2.0	1.851	Sem/Sem_run-01/stereo_2SU87A0.wav	2.0	1	1.601
12.327	3.933	S_H	1.0	n/a	n/a	1.0	1.216	Sem/Sem_run-01/stereo_1SH13A0.wav	1.0	1	0.966
16.262999999999998	4.323	S_H	1.0	n/a	n/a	1.0	1.354	Sem/Sem_run-01/stereo_1SH05A0.wav	1.0	1	1.104
20.6	4.073	S_C	1.0	1.0	0.599	1.0	0.841	Sem/Sem_run-01/ContS31.wav	1.0	1	0.599
24.686999999999998	3.869	S_L	1.0	n/a	n/a	1.0	1.405	Sem/Sem_run-01/stereo_2SL63A0.wav	1.0	1	1.155
28.557	3.75	S_L	1.0	n/a	n/a	2.0	1.339	Sem/Sem_run-01/stereo_1SL29A0.wav	2.0	0	1.089
32.31	4.3660000000000005	S_U	2.0	n/a	n/a	1.0	1.929	Sem/Sem_run-01/stereo_2SU78A0.wav	1.0	0	1.679
36.68	3.3	S_L	1.0	n/a	n/a	1.0	1.774	Sem/Sem_run-01/stereo_1SL17A0.wav	1.0	1	1.524
39.983000000000004	3.884	S_C	1.0	1.0	0.6579999999999999	1.0	0.606	Sem/Sem_run-01/ContS05.wav	1.0	1	0.6579999999999999
43.869	4.371	S_H	1.0	n/a	n/a	2.0	1.579	Sem/Sem_run-01/stereo_2SH58A0.wav	2.0	0	1.329
48.256	4.329	S_L	1.0	n/a	n/a	2.0	1.6480000000000001	Sem/Sem_run-01/stereo_2SL72A0.wav	2.0	0	1.3980000000000001
52.593	3.94	S_H	1.0	n/a	n/a	1.0	1.7690000000000001	Sem/Sem_run-01/stereo_2SH57A0.wav	1.0	1	1.5190000000000001
56.54600000000001	4.2	S_U	2.0	n/a	n/a	2.0	1.699	Sem/Sem_run-01/stereo_2SU83A0.wav	2.0	1	1.449
60.748999999999995	3.474	S_C	1.0	1.0	0.608	1.0	0.698	Sem/Sem_run-01/ContS11.wav	1.0	1	0.608
64.236	4.271	S_L	1.0	n/a	n/a	1.0	1.56	Sem/Sem_run-01/stereo_1SL26A0.wav	1.0	1	1.31
68.52199999999999	3.91	S_L	1.0	n/a	n/a	1.0	1.482	Sem/Sem_run-01/stereo_1SL25A0.wav	1.0	1	1.232
72.442	4.479	S_C	1.0	1.0	0.665	1.0	0.627	Sem/Sem_run-01/ContS25.wav	1.0	1	0.665
76.929	3.378	S_U	2.0	n/a	n/a	2.0	1.541	Sem/Sem_run-01/stereo_2SU81A0.wav	2.0	1	1.291
80.315	3.42	S_L	1.0	n/a	n/a	1.0	1.527	Sem/Sem_run-01/stereo_1SL27A0.wav	1.0	1	1.277
83.735	4.3439999999999985	S_L	1.0	n/a	n/a	1.0	1.615	Sem/Sem_run-01/stereo_1SL30A0.wav	1.0	1	1.365
88.088	3.909	S_L	1.0	n/a	n/a	2.0	1.581	Sem/Sem_run-01/stereo_2SL71A0.wav	2.0	0	1.331
92.008	3.867	S_H	1.0	n/a	n/a	1.0	1.411	Sem/Sem_run-01/stereo_1SH04A0.wav	1.0	1	1.161
95.87799999999999	3.828	S_U	2.0	n/a	n/a	1.0	1.341	Sem/Sem_run-01/stereo_1SU37A0.wav	1.0	0	1.091
99.714	4.565	S_C	1.0	1.0	0.624	1.0	0.789	Sem/Sem_run-01/ContS35.wav	1.0	1	0.624
104.28399999999999	3.3	S_U	2.0	n/a	n/a	2.0	1.185	Sem/Sem_run-01/stereo_1SU35A0.wav	2.0	1	0.935
107.587	3.477	S_L	1.0	n/a	n/a	2.0	1.516	Sem/Sem_run-01/stereo_2SL65A0.wav	2.0	0	1.266
111.073	3.83	S_H	1.0	n/a	n/a	1.0	1.31	Sem/Sem_run-01/stereo_1SH07A0.wav	1.0	1	1.06
114.91	4.3439999999999985	S_C	1.0	1.0	0.612	1.0	0.428	Sem/Sem_run-01/ContS07.wav	1.0	1	0.612
119.26299999999999	3.5	S_H	1.0	n/a	n/a	1.0	1.6369999999999998	Sem/Sem_run-01/stereo_1SH03A0.wav	1.0	1	1.3869999999999998
122.766	3.919	S_U	2.0	n/a	n/a	1.0	1.986	Sem/Sem_run-01/stereo_1SU45A0.wav	1.0	0	1.736
126.686	3.5	S_H	1.0	n/a	n/a	1.0	1.3359999999999999	Sem/Sem_run-01/stereo_1SH06A0.wav	1.0	1	1.0859999999999999
130.189	3.392	S_L	1.0	n/a	n/a	1.0	1.321	Sem/Sem_run-01/stereo_2SL62A0.wav	1.0	1	1.071
133.591	3.54	S_C	1.0	1.0	0.7390000000000001	1.0	0.73	Sem/Sem_run-01/ContS19.wav	1.0	1	0.7390000000000001
137.144	4.4	S_H	1.0	n/a	n/a	1.0	1.281	Sem/Sem_run-01/stereo_1SH15A0.wav	1.0	1	1.031
141.548	3.342	S_H	1.0	1.0	0.633	1.0	1.618	Sem/Sem_run-01/stereo_1SH11A0.wav	1.0	1	1.368
144.901	3.385	S_U	2.0	n/a	n/a	2.0	1.5959999999999999	Sem/Sem_run-01/stereo_1SU44A0.wav	2.0	1	1.3459999999999999
148.287	3.4160000000000004	S_H	1.0	n/a	n/a	1.0	1.7830000000000001	Sem/Sem_run-01/stereo_2SH56A0.wav	1.0	1	1.5330000000000001
151.70600000000005	3.849	S_U	2.0	n/a	n/a	2.0	1.327	Sem/Sem_run-01/stereo_2SU82A0.wav	2.0	1	1.077
155.559	3.934	S_C	1.0	1.0	0.616	1.0	0.43799999999999994	Sem/Sem_run-01/ContS13.wav	1.0	1	0.616
159.496	4.309	S_L	1.0	n/a	n/a	1.0	2.153	Sem/Sem_run-01/stereo_2SL64A0.wav	1.0	1	1.903
163.816	4.413	S_C	1.0	1.0	0.66	1.0	0.46799999999999997	Sem/Sem_run-01/ContS17.wav	1.0	1	0.66
168.236	4.2	S_U	2.0	n/a	n/a	2.0	1.432	Sem/Sem_run-01/stereo_2SU90A0.wav	2.0	1	1.182
172.43900000000005	3.846	S_U	2.0	n/a	n/a	1.0	1.6019999999999999	Sem/Sem_run-01/stereo_2SU88A0.wav	1.0	0	1.3519999999999999
176.293	3.3939999999999997	S_C	1.0	1.0	0.591	1.0	0.429	Sem/Sem_run-01/ContS01.wav	1.0	1	0.591
179.695	4.013	S_C	1.0	1.0	0.617	1.0	0.511	Sem/Sem_run-01/ContS23.wav	1.0	1	0.617
183.715	4.227	S_H	1.0	n/a	n/a	1.0	1.178	Sem/Sem_run-01/stereo_1SH08A0.wav	1.0	1	0.9279999999999999
