onset	duration	trial_type	correct	window1_response	window1_RT	window2_response	window2_RT	stim_file	calculated_response	calculated_accuracy	calculated_RT
1.068	4.2	S_U	2.0	n/a	n/a	2.0	2.574	Sem/Sem_run-01/stereo_1SU41A0.wav	2.0	1	2.324
5.271	3.596	S_C	1.0	n/a	n/a	1.0	2.052	Sem/Sem_run-01/ContS29.wav	1.0	1	2.802
8.874	3.425	S_U	2.0	n/a	n/a	n/a	n/a	Sem/Sem_run-01/stereo_2SU87A0.wav	n/a	0	n/a
12.31	3.933	S_H	1.0	n/a	n/a	1.0	1.4180000000000001	Sem/Sem_run-01/stereo_1SH13A0.wav	1.0	1	1.168
16.246	4.323	S_H	1.0	n/a	n/a	1.0	1.3559999999999999	Sem/Sem_run-01/stereo_1SH05A0.wav	1.0	1	1.106
20.583000000000002	4.073	S_C	1.0	n/a	n/a	1.0	1.683	Sem/Sem_run-01/ContS31.wav	1.0	1	2.433
24.669	3.869	S_L	1.0	n/a	n/a	1.0	1.27	Sem/Sem_run-01/stereo_2SL63A0.wav	1.0	1	1.02
28.539	3.75	S_L	1.0	n/a	n/a	1.0	1.2570000000000001	Sem/Sem_run-01/stereo_1SL29A0.wav	1.0	1	1.007
32.292	4.3660000000000005	S_U	2.0	n/a	n/a	2.0	2.468	Sem/Sem_run-01/stereo_2SU78A0.wav	2.0	1	2.218
36.662	3.3	S_L	1.0	n/a	n/a	n/a	n/a	Sem/Sem_run-01/stereo_1SL17A0.wav	n/a	0	n/a
39.964	3.884	S_C	1.0	n/a	n/a	1.0	1.3619999999999999	Sem/Sem_run-01/ContS05.wav	1.0	1	2.112
43.85	4.371	S_H	1.0	n/a	n/a	1.0	1.204	Sem/Sem_run-01/stereo_2SH58A0.wav	1.0	1	0.954
48.236999999999995	4.329	S_L	1.0	n/a	n/a	1.0	1.178	Sem/Sem_run-01/stereo_2SL72A0.wav	1.0	1	0.9279999999999999
52.574	3.94	S_H	1.0	n/a	n/a	1.0	1.2309999999999999	Sem/Sem_run-01/stereo_2SH57A0.wav	1.0	1	0.9810000000000001
56.527	4.2	S_U	2.0	n/a	n/a	2.0	2.206	Sem/Sem_run-01/stereo_2SU83A0.wav	2.0	1	1.956
60.73	3.474	S_C	1.0	n/a	n/a	1.0	1.4080000000000001	Sem/Sem_run-01/ContS11.wav	1.0	1	2.158
64.21600000000001	4.271	S_L	1.0	n/a	n/a	1.0	1.526	Sem/Sem_run-01/stereo_1SL26A0.wav	1.0	1	1.276
68.502	3.91	S_L	1.0	n/a	n/a	1.0	1.37	Sem/Sem_run-01/stereo_1SL25A0.wav	1.0	1	1.12
72.422	4.479	S_C	1.0	n/a	n/a	1.0	1.492	Sem/Sem_run-01/ContS25.wav	1.0	1	2.242
76.90899999999998	3.378	S_U	2.0	n/a	n/a	1.0	1.848	Sem/Sem_run-01/stereo_2SU81A0.wav	1.0	0	1.598
80.295	3.42	S_L	1.0	n/a	n/a	2.0	2.076	Sem/Sem_run-01/stereo_1SL27A0.wav	2.0	0	1.826
83.73100000000002	4.3439999999999985	S_L	1.0	n/a	n/a	n/a	n/a	Sem/Sem_run-01/stereo_1SL30A0.wav	n/a	0	n/a
88.084	3.909	S_L	1.0	n/a	n/a	1.0	1.568	Sem/Sem_run-01/stereo_2SL71A0.wav	1.0	1	1.318
92.00399999999999	3.867	S_H	1.0	n/a	n/a	1.0	1.262	Sem/Sem_run-01/stereo_1SH04A0.wav	1.0	1	1.012
95.87299999999999	3.828	S_U	2.0	n/a	n/a	n/a	n/a	Sem/Sem_run-01/stereo_1SU37A0.wav	n/a	0	n/a
99.71	4.565	S_C	1.0	n/a	n/a	n/a	n/a	Sem/Sem_run-01/ContS35.wav	n/a	0	n/a
104.28	3.3	S_U	2.0	n/a	n/a	1.0	1.6030000000000002	Sem/Sem_run-01/stereo_1SU35A0.wav	1.0	0	1.3530000000000002
107.58200000000001	3.477	S_L	1.0	n/a	n/a	1.0	1.615	Sem/Sem_run-01/stereo_2SL65A0.wav	1.0	1	1.365
111.068	3.83	S_H	1.0	n/a	n/a	1.0	2.021	Sem/Sem_run-01/stereo_1SH07A0.wav	1.0	1	1.771
114.904	4.3439999999999985	S_C	1.0	n/a	n/a	1.0	1.3530000000000002	Sem/Sem_run-01/ContS07.wav	1.0	1	2.103
119.258	3.5	S_H	1.0	n/a	n/a	1.0	1.735	Sem/Sem_run-01/stereo_1SH03A0.wav	1.0	1	1.485
122.76	3.919	S_U	2.0	n/a	n/a	2.0	2.441	Sem/Sem_run-01/stereo_1SU45A0.wav	2.0	1	2.191
126.68	3.5	S_H	1.0	n/a	n/a	1.0	1.9509999999999998	Sem/Sem_run-01/stereo_1SH06A0.wav	1.0	1	1.701
130.183	3.392	S_L	1.0	n/a	n/a	n/a	n/a	Sem/Sem_run-01/stereo_2SL62A0.wav	n/a	0	n/a
133.585	3.54	S_C	1.0	n/a	n/a	1.0	2.231	Sem/Sem_run-01/ContS19.wav	1.0	1	2.981
137.138	4.4	S_H	1.0	n/a	n/a	1.0	1.484	Sem/Sem_run-01/stereo_1SH15A0.wav	1.0	1	1.234
141.541	3.342	S_H	1.0	n/a	n/a	1.0	1.3230000000000002	Sem/Sem_run-01/stereo_1SH11A0.wav	1.0	1	1.0730000000000002
144.894	3.385	S_U	2.0	n/a	n/a	2.0	2.032	Sem/Sem_run-01/stereo_1SU44A0.wav	2.0	1	1.782
148.28	3.4160000000000004	S_H	1.0	n/a	n/a	1.0	1.247	Sem/Sem_run-01/stereo_2SH56A0.wav	1.0	1	0.9970000000000001
151.69899999999996	3.849	S_U	2.0	n/a	n/a	2.0	2.2119999999999997	Sem/Sem_run-01/stereo_2SU82A0.wav	2.0	1	1.9620000000000002
155.55200000000005	3.934	S_C	1.0	n/a	n/a	1.0	2.156	Sem/Sem_run-01/ContS13.wav	1.0	1	2.906
159.488	4.309	S_L	1.0	n/a	n/a	1.0	1.298	Sem/Sem_run-01/stereo_2SL64A0.wav	1.0	1	1.048
163.808	4.413	S_C	1.0	n/a	n/a	1.0	1.335	Sem/Sem_run-01/ContS17.wav	1.0	1	2.085
168.22799999999995	4.2	S_U	2.0	n/a	n/a	2.0	1.923	Sem/Sem_run-01/stereo_2SU90A0.wav	2.0	1	1.673
172.43200000000004	3.846	S_U	2.0	n/a	n/a	1.0	2.4619999999999997	Sem/Sem_run-01/stereo_2SU88A0.wav	1.0	0	2.212
176.285	3.3939999999999997	S_C	1.0	n/a	n/a	1.0	1.462	Sem/Sem_run-01/ContS01.wav	1.0	1	2.2119999999999997
179.687	4.013	S_C	1.0	n/a	n/a	1.0	1.704	Sem/Sem_run-01/ContS23.wav	1.0	1	2.4539999999999997
183.707	4.227	S_H	1.0	n/a	n/a	1.0	2.984	Sem/Sem_run-01/stereo_1SH08A0.wav	1.0	1	2.734
