onset	duration	trial_type	correct	window1_response	window1_RT	window2_response	window2_RT	stim_file	calculated_response	calculated_accuracy	calculated_RT
1.084	6.343	SP_S	1.0	n/a	n/a	1.0	3.87	Plaus/Plaus_run-02/stereo_PC37.wav	1.0	1	1.7089999999999996
7.439	6.345	SP_W	1.0	n/a	n/a	1.0	4.12	Plaus/Plaus_run-02/stereo_PW74.wav	1.0	1	2.1510000000000002
13.794	6.095	SP_C	1.0	n/a	n/a	1.0	4.033	Plaus/Plaus_run-02/CoM10d.wav	1.0	1	4.783
19.898	6.401	SP_I	2.0	n/a	n/a	1.0	3.1889999999999996	Plaus/Plaus_run-02/stereo_PI56.wav	1.0	0	2.322
26.303	6.407	SP_W	1.0	n/a	n/a	1.0	3.944	Plaus/Plaus_run-02/stereo_PW39.wav	1.0	1	1.9169999999999998
32.725	6.8420000000000005	SP_I	2.0	n/a	n/a	2.0	3.985	Plaus/Plaus_run-02/stereo_PI44.wav	2.0	1	1.7879999999999998
39.58	7.7	SP_C	1.0	n/a	n/a	1.0	3.9989999999999997	Plaus/Plaus_run-02/CoM07e.wav	1.0	1	4.7490000000000006
47.286	5.756	SP_S	1.0	n/a	n/a	1.0	3.84	Plaus/Plaus_run-02/stereo_PC03.wav	1.0	1	2.898
53.056999999999995	7.372000000000001	SP_S	1.0	n/a	n/a	1.0	3.801	Plaus/Plaus_run-02/stereo_PC82.wav	1.0	1	1.746
60.428999999999995	6.095	SP_C	1.0	n/a	n/a	1.0	4.5089999999999995	Plaus/Plaus_run-02/CoM04d.wav	1.0	1	5.259
66.53399999999999	6.303	SP_I	2.0	n/a	n/a	2.0	3.313	Plaus/Plaus_run-02/stereo_PI23.wav	2.0	1	2.3289999999999997
72.839	5.655	SP_I	2.0	n/a	n/a	1.0	3.123	Plaus/Plaus_run-02/stereo_PI22.wav	1.0	0	2.204
78.51	6.85	SP_C	1.0	n/a	n/a	1.0	3.801	Plaus/Plaus_run-02/CoM08d.wav	1.0	1	4.551
85.365	6.9179999999999975	SP_S	1.0	n/a	n/a	1.0	3.727	Plaus/Plaus_run-02/stereo_PC79.wav	1.0	1	1.4810000000000003
92.287	5.233	SP_I	2.0	n/a	n/a	2.0	3.145	Plaus/Plaus_run-02/stereo_PI21.wav	2.0	1	2.1050000000000004
97.524	6.385	SP_S	1.0	n/a	n/a	1.0	5.209	Plaus/Plaus_run-02/stereo_PC46.wav	1.0	1	4.247
103.912	6.282	SP_W	1.0	n/a	n/a	1.0	3.4410000000000003	Plaus/Plaus_run-02/stereo_PW64.wav	1.0	1	2.3350000000000004
110.2	7.69	SP_C	1.0	n/a	n/a	1.0	3.9410000000000003	Plaus/Plaus_run-02/CoM04e.wav	1.0	1	4.691
117.89	6.316	SP_I	2.0	n/a	n/a	2.0	4.192	Plaus/Plaus_run-02/stereo_PI34.wav	2.0	1	2.035
124.211	5.47	SP_C	1.0	n/a	n/a	1.0	3.904	Plaus/Plaus_run-02/CoM10b.wav	1.0	1	4.654
129.68200000000002	5.636	SP_I	2.0	n/a	n/a	2.0	3.2680000000000002	Plaus/Plaus_run-02/stereo_PI55.wav	2.0	1	2.4289999999999994
135.32	7.461	SP_W	1.0	n/a	n/a	1.0	3.813	Plaus/Plaus_run-02/stereo_PW83.wav	1.0	1	1.8090000000000006
142.792	5.48	SP_C	1.0	n/a	n/a	1.0	4.035	Plaus/Plaus_run-02/CoM01b.wav	1.0	1	4.785
148.279	6.2120000000000015	SP_W	1.0	n/a	n/a	1.0	3.95	Plaus/Plaus_run-02/stereo_PW08.wav	1.0	1	3.0890000000000004
154.501	4.694	SP_W	1.0	n/a	n/a	1.0	2.51	Plaus/Plaus_run-02/stereo_PW07.wav	1.0	1	1.6349999999999998
159.204	6.197	SP_I	2.0	n/a	n/a	2.0	3.992	Plaus/Plaus_run-02/stereo_PI43.wav	2.0	1	1.9320000000000004
165.40900000000005	6.1979999999999995	SP_S	1.0	n/a	n/a	n/a	n/a	Plaus/Plaus_run-02/stereo_PC59.wav	n/a	0	n/a
171.614	7.345	SP_C	1.0	n/a	n/a	1.0	5.971	Plaus/Plaus_run-02/CoM05l.wav	1.0	1	6.721
178.97	5.2429999999999986	SP_S	1.0	n/a	n/a	n/a	n/a	Plaus/Plaus_run-02/stereo_PC02.wav	n/a	0	n/a
184.22400000000002	6.82	SP_C	1.0	n/a	n/a	1.0	4.234	Plaus/Plaus_run-02/CoM09l.wav	1.0	1	4.984
191.045	7.183	SP_I	2.0	n/a	n/a	2.0	3.444	Plaus/Plaus_run-02/stereo_PI78.wav	2.0	1	1.5259999999999998
198.234	6.727	SP_W	1.0	n/a	n/a	n/a	n/a	Plaus/Plaus_run-02/stereo_PW40.wav	1.0	1	3.8810000000000002
204.97299999999998	5.181	SP_S	1.0	1.0	0.13699999999999998	1.0	3.674	Plaus/Plaus_run-02/stereo_PC60.wav	1.0	1	2.384
210.16	7.135	SP_W	1.0	n/a	n/a	1.0	3.458	Plaus/Plaus_run-02/stereo_PW73.wav	1.0	1	1.5259999999999998
217.299	6.76	SP_C	1.0	n/a	n/a	1.0	4.967	Plaus/Plaus_run-02/CoM04l.wav	1.0	1	5.717
224.071	6.682	SP_I	2.0	n/a	n/a	2.0	4.129	Plaus/Plaus_run-02/stereo_PI75.wav	2.0	1	2.1329999999999996
230.75900000000001	6.002999999999999	SP_W	1.0	n/a	n/a	n/a	n/a	Plaus/Plaus_run-02/stereo_PW63.wav	n/a	0	n/a
236.764	5.0760000000000005	SP_W	1.0	n/a	n/a	1.0	3.218	Plaus/Plaus_run-02/stereo_PW05.wav	1.0	1	2.44
241.851	6.218	SP_S	1.0	n/a	n/a	1.0	3.69	Plaus/Plaus_run-02/stereo_PC69.wav	1.0	1	1.4530000000000003
248.072	6.569	SP_S	1.0	n/a	n/a	1.0	3.8960000000000004	Plaus/Plaus_run-02/stereo_PC70.wav	1.0	1	2.02
