onset	duration	trial_type	correct	window1_response	window1_RT	window2_response	window2_RT	stim_file	calculated_response	calculated_accuracy	calculated_RT
1.0924	3.5	P_R	1.0	n/a	n/a	1.0	1.413	Phon/Phon_run-02/stereo_PR20.wav	1.0	1	1.163
4.595	4.235	P_O	1.0	n/a	n/a	1.0	1.794	Phon/Phon_run-02/PC034.wav	1.0	1	1.544
8.8325	3.375	P_R	1.0	n/a	n/a	1.0	1.3419999999999999	Phon/Phon_run-02/stereo_PR13.wav	1.0	1	1.092
12.2183	3.474	P_C	1.0	n/a	n/a	1.0	1.2590000000000001	Phon/Phon_run-02/ContS12.wav	1.0	1	2.009
15.7041	3.875	P_U	2.0	n/a	n/a	2.0	1.33	Phon/Phon_run-02/PM025.wav	2.0	1	1.08
19.5903	3.726	P_R	1.0	n/a	n/a	1.0	1.432	Phon/Phon_run-02/stereo_PR22.wav	1.0	1	1.182
23.3263	3.451	P_O	1.0	n/a	n/a	2.0	1.661	Phon/Phon_run-02/PC014.wav	2.0	0	1.411
26.7799	3.779	P_C	1.0	n/a	n/a	1.0	1.2229999999999999	Phon/Phon_run-02/ContS02.wav	1.0	1	1.973
30.566	3.821	P_U	2.0	n/a	n/a	2.0	2.499	Phon/Phon_run-02/stereo_PU18.wav	2.0	1	2.249
34.402	3.49	P_U	2.0	n/a	n/a	n/a	n/a	Phon/Phon_run-02/stereo_PU12.wav	n/a	0	n/a
37.9046	4.38	P_C	1.0	2.0	0.040999999999999995	1.0	1.3769999999999998	Phon/Phon_run-02/ContS32.wav	2.0	0	0.041
42.291000000000004	4.0969999999999995	P_R	1.0	n/a	n/a	1.0	1.44	Phon/Phon_run-02/stereo_PR16.wav	1.0	1	1.19
46.394	3.5	P_O	1.0	n/a	n/a	2.0	2.256	Phon/Phon_run-02/PC022.wav	2.0	0	2.006
49.8966	4.0760000000000005	P_R	1.0	n/a	n/a	1.0	2.772	Phon/Phon_run-02/stereo_PR08.wav	1.0	1	2.522
53.983000000000004	3.5	P_O	1.0	n/a	n/a	2.0	2.112	Phon/Phon_run-02/PC028.wav	2.0	0	1.862
57.4856	3.5	P_U	2.0	n/a	n/a	1.0	2.135	Phon/Phon_run-02/stereo_PU27.wav	1.0	0	1.8849999999999998
60.9881	3.819	P_C	1.0	n/a	n/a	1.0	1.0759999999999998	Phon/Phon_run-02/ContS06.wav	1.0	1	1.8259999999999998
64.8086	4.25	P_O	1.0	n/a	n/a	1.0	2.184	Phon/Phon_run-02/PC031.wav	1.0	1	1.9340000000000002
69.062	3.662	P_C	1.0	n/a	n/a	1.0	1.194	Phon/Phon_run-02/ContS36.wav	1.0	1	1.944
72.7312	3.823	P_O	1.0	n/a	n/a	2.0	1.551	Phon/Phon_run-02/PC023.wav	2.0	0	1.301
76.5674	4.323	P_C	1.0	n/a	n/a	1.0	1.4869999999999999	Phon/Phon_run-02/ContS24.wav	1.0	1	2.237
80.9038	3.865	P_U	2.0	n/a	n/a	2.0	2.265	Phon/Phon_run-02/PM004.wav	2.0	1	2.015
84.7733	3.875	P_O	1.0	n/a	n/a	1.0	2.385	Phon/Phon_run-02/PC007.wav	1.0	1	2.135
88.6594	4.25	P_U	2.0	n/a	n/a	2.0	2.864	Phon/Phon_run-02/PM011.wav	2.0	1	2.614
92.9126	4.362	P_C	1.0	n/a	n/a	1.0	1.953	Phon/Phon_run-02/ContS30.wav	1.0	1	2.7030000000000003
97.2825	3.875	P_O	1.0	n/a	n/a	1.0	2.5	Phon/Phon_run-02/PC030.wav	1.0	1	2.25
101.1687	3.3360000000000003	P_R	1.0	n/a	n/a	1.0	1.463	Phon/Phon_run-02/stereo_PR05.wav	1.0	1	1.213
104.5077	4.113	P_U	2.0	n/a	n/a	2.0	1.624	Phon/Phon_run-02/stereo_PU01.wav	2.0	1	1.374
108.6273	4.1739999999999995	P_U	2.0	n/a	n/a	1.0	1.712	Phon/Phon_run-02/PM029.wav	1.0	0	1.462
112.8137	3.4539999999999997	P_C	1.0	n/a	n/a	1.0	0.91	Phon/Phon_run-02/ContS08.wav	1.0	1	1.6600000000000001
116.2828	3.446	P_R	1.0	n/a	n/a	1.0	1.474	Phon/Phon_run-02/stereo_PR30.wav	1.0	1	1.224
119.7352	3.85	P_R	1.0	n/a	n/a	1.0	2.266	Phon/Phon_run-02/stereo_PR07.wav	1.0	1	2.016
123.588	3.438	P_U	2.0	n/a	n/a	2.0	2.082	Phon/Phon_run-02/stereo_PU02.wav	2.0	1	1.8319999999999999
127.0406	3.915	P_C	1.0	n/a	n/a	1.0	1.1159999999999999	Phon/Phon_run-02/ContS20.wav	1.0	1	1.866
130.9601	3.487	P_U	2.0	n/a	n/a	2.0	1.244	Phon/Phon_run-02/PM021.wav	2.0	1	0.994
134.46200000000002	3.965	P_C	1.0	n/a	n/a	1.0	1.328	Phon/Phon_run-02/ContS26.wav	1.0	1	2.0780000000000003
138.4315	3.792	P_R	1.0	n/a	n/a	1.0	1.5619999999999998	Phon/Phon_run-02/stereo_PR31.wav	1.0	1	1.3119999999999998
142.2343	4.135	P_O	1.0	n/a	n/a	2.0	2.043	Phon/Phon_run-02/PC024.wav	2.0	0	1.7930000000000001
146.3717	3.875	P_U	2.0	n/a	n/a	2.0	1.3119999999999998	Phon/Phon_run-02/PM010.wav	2.0	1	1.0619999999999998
150.2579	3.875	P_O	1.0	n/a	n/a	1.0	2.7039999999999997	Phon/Phon_run-02/PC015.wav	1.0	1	2.454
154.144	4.245	P_C	1.0	n/a	n/a	1.0	1.486	Phon/Phon_run-02/ContS14.wav	1.0	1	2.2359999999999998
158.3971	3.854	P_R	1.0	n/a	n/a	2.0	2.435	Phon/Phon_run-02/stereo_PR14.wav	2.0	0	2.185
162.2662	4.239	P_O	1.0	n/a	n/a	1.0	2.4819999999999998	Phon/Phon_run-02/PC008.wav	1.0	1	2.232
166.5192	4.25	P_U	2.0	n/a	n/a	2.0	1.881	Phon/Phon_run-02/stereo_PU11.wav	2.0	1	1.631
170.7726	3.523	P_C	1.0	n/a	n/a	1.0	1.21	Phon/Phon_run-02/ContS18.wav	1.0	1	1.96
174.3085	3.429	P_O	1.0	n/a	n/a	1.0	1.695	Phon/Phon_run-02/PC006.wav	1.0	1	1.445
177.7443	4.18	P_R	1.0	n/a	n/a	1.0	1.561	Phon/Phon_run-02/stereo_PR32.wav	1.0	1	1.311
181.9307	4.104	P_R	1.0	n/a	n/a	1.0	1.551	Phon/Phon_run-02/stereo_PR24.wav	1.0	1	1.301
