onset	duration	trial_type	correct	window1_response	window1_RT	window2_response	window2_RT	stim_file	calculated_response	calculated_accuracy	calculated_RT
1.084	4.2	S_U	2.0	n/a	n/a	2.0	1.472	Sem/Sem_run-01/stereo_1SU41A0.wav	2.0	1	1.222
5.287000000000001	3.596	S_C	1.0	1.0	0.73	1.0	0.5770000000000001	Sem/Sem_run-01/ContS29.wav	1.0	1	0.73
8.89	3.425	S_U	2.0	n/a	n/a	2.0	1.23	Sem/Sem_run-01/stereo_2SU87A0.wav	2.0	1	0.98
12.327	3.933	S_H	1.0	n/a	n/a	1.0	1.324	Sem/Sem_run-01/stereo_1SH13A0.wav	1.0	1	1.074
16.262999999999998	4.323	S_H	1.0	n/a	n/a	1.0	1.097	Sem/Sem_run-01/stereo_1SH05A0.wav	1.0	1	0.847
20.6	4.073	S_C	1.0	1.0	0.556	1.0	0.589	Sem/Sem_run-01/ContS31.wav	1.0	1	0.556
24.686999999999998	3.869	S_L	1.0	n/a	n/a	1.0	1.364	Sem/Sem_run-01/stereo_2SL63A0.wav	1.0	1	1.114
28.555999999999997	3.75	S_L	1.0	n/a	n/a	1.0	0.937	Sem/Sem_run-01/stereo_1SL29A0.wav	1.0	1	0.687
32.309	4.3660000000000005	S_U	2.0	n/a	n/a	2.0	1.3869999999999998	Sem/Sem_run-01/stereo_2SU78A0.wav	2.0	1	1.1369999999999998
36.68	3.3	S_L	1.0	n/a	n/a	1.0	1.232	Sem/Sem_run-01/stereo_1SL17A0.wav	1.0	1	0.982
39.982	3.884	S_C	1.0	n/a	n/a	1.0	0.711	Sem/Sem_run-01/ContS05.wav	1.0	1	1.4609999999999999
43.869	4.371	S_H	1.0	n/a	n/a	1.0	1.13	Sem/Sem_run-01/stereo_2SH58A0.wav	1.0	1	0.8799999999999999
48.256	4.329	S_L	1.0	n/a	n/a	1.0	1.258	Sem/Sem_run-01/stereo_2SL72A0.wav	1.0	1	1.008
52.592	3.94	S_H	1.0	n/a	n/a	1.0	1.5230000000000001	Sem/Sem_run-01/stereo_2SH57A0.wav	1.0	1	1.273
56.54600000000001	4.2	S_U	2.0	n/a	n/a	2.0	1.079	Sem/Sem_run-01/stereo_2SU83A0.wav	2.0	1	0.8290000000000001
60.748999999999995	3.474	S_C	1.0	1.0	0.5760000000000001	1.0	0.516	Sem/Sem_run-01/ContS11.wav	1.0	1	0.5760000000000001
64.235	4.271	S_L	1.0	n/a	n/a	1.0	0.943	Sem/Sem_run-01/stereo_1SL26A0.wav	1.0	1	0.693
68.52199999999999	3.91	S_L	1.0	n/a	n/a	1.0	1.07	Sem/Sem_run-01/stereo_1SL25A0.wav	1.0	1	0.8200000000000001
72.442	4.479	S_C	1.0	1.0	0.585	1.0	0.618	Sem/Sem_run-01/ContS25.wav	1.0	1	0.585
76.929	3.378	S_U	2.0	n/a	n/a	2.0	1.374	Sem/Sem_run-01/stereo_2SU81A0.wav	2.0	1	1.124
80.315	3.42	S_L	1.0	n/a	n/a	1.0	1.7619999999999998	Sem/Sem_run-01/stereo_1SL27A0.wav	1.0	1	1.5119999999999998
83.751	4.3439999999999985	S_L	1.0	n/a	n/a	1.0	1.464	Sem/Sem_run-01/stereo_1SL30A0.wav	1.0	1	1.214
88.105	3.909	S_L	1.0	n/a	n/a	1.0	1.369	Sem/Sem_run-01/stereo_2SL71A0.wav	1.0	1	1.119
92.024	3.867	S_H	1.0	n/a	n/a	1.0	1.271	Sem/Sem_run-01/stereo_1SH04A0.wav	1.0	1	1.021
95.89399999999999	3.828	S_U	2.0	n/a	n/a	2.0	1.78	Sem/Sem_run-01/stereo_1SU37A0.wav	2.0	1	1.53
99.73100000000001	4.565	S_C	1.0	1.0	0.594	1.0	0.5760000000000001	Sem/Sem_run-01/ContS35.wav	1.0	1	0.594
104.301	3.3	S_U	2.0	n/a	n/a	2.0	1.473	Sem/Sem_run-01/stereo_1SU35A0.wav	2.0	1	1.223
107.604	3.477	S_L	1.0	n/a	n/a	1.0	1.472	Sem/Sem_run-01/stereo_2SL65A0.wav	1.0	1	1.222
111.09	3.83	S_H	1.0	n/a	n/a	1.0	1.392	Sem/Sem_run-01/stereo_1SH07A0.wav	1.0	1	1.142
114.926	4.3439999999999985	S_C	1.0	1.0	0.696	1.0	0.389	Sem/Sem_run-01/ContS07.wav	1.0	1	0.696
119.28	3.5	S_H	1.0	n/a	n/a	1.0	1.703	Sem/Sem_run-01/stereo_1SH03A0.wav	1.0	1	1.453
122.78299999999999	3.919	S_U	2.0	n/a	n/a	2.0	1.5519999999999998	Sem/Sem_run-01/stereo_1SU45A0.wav	2.0	1	1.3019999999999998
126.70200000000001	3.5	S_H	1.0	n/a	n/a	1.0	1.061	Sem/Sem_run-01/stereo_1SH06A0.wav	1.0	1	0.8109999999999999
130.205	3.392	S_L	1.0	n/a	n/a	1.0	1.71	Sem/Sem_run-01/stereo_2SL62A0.wav	1.0	1	1.46
133.608	3.54	S_C	1.0	1.0	0.591	1.0	0.473	Sem/Sem_run-01/ContS19.wav	1.0	1	0.591
137.161	4.4	S_H	1.0	n/a	n/a	1.0	1.439	Sem/Sem_run-01/stereo_1SH15A0.wav	1.0	1	1.189
141.565	3.342	S_H	1.0	n/a	n/a	1.0	1.1179999999999999	Sem/Sem_run-01/stereo_1SH11A0.wav	1.0	1	0.8679999999999999
144.917	3.385	S_U	2.0	n/a	n/a	2.0	1.462	Sem/Sem_run-01/stereo_1SU44A0.wav	2.0	1	1.212
148.303	3.4160000000000004	S_H	1.0	n/a	n/a	1.0	0.821	Sem/Sem_run-01/stereo_2SH56A0.wav	1.0	1	0.5710000000000001
151.72299999999996	3.849	S_U	2.0	n/a	n/a	2.0	1.212	Sem/Sem_run-01/stereo_2SU82A0.wav	2.0	1	0.962
155.576	3.934	S_C	1.0	1.0	0.667	1.0	0.389	Sem/Sem_run-01/ContS13.wav	1.0	1	0.667
159.512	4.309	S_L	1.0	n/a	n/a	1.0	0.996	Sem/Sem_run-01/stereo_2SL64A0.wav	1.0	1	0.746
163.833	4.413	S_C	1.0	1.0	0.579	1.0	0.335	Sem/Sem_run-01/ContS17.wav	1.0	1	0.579
168.253	4.2	S_U	2.0	n/a	n/a	2.0	1.361	Sem/Sem_run-01/stereo_2SU90A0.wav	2.0	1	1.111
172.456	3.846	S_U	2.0	n/a	n/a	2.0	1.527	Sem/Sem_run-01/stereo_2SU88A0.wav	2.0	1	1.277
176.30900000000003	3.3939999999999997	S_C	1.0	1.0	0.74	1.0	0.408	Sem/Sem_run-01/ContS01.wav	1.0	1	0.74
179.71200000000005	4.013	S_C	1.0	1.0	0.5670000000000001	1.0	0.33799999999999997	Sem/Sem_run-01/ContS23.wav	1.0	1	0.5670000000000001
183.732	4.227	S_H	1.0	n/a	n/a	1.0	0.9059999999999999	Sem/Sem_run-01/stereo_1SH08A0.wav	1.0	1	0.6559999999999999
