onset	duration	trial_type	correct	window1_response	window1_RT	window2_response	window2_RT	stim_file	calculated_response	calculated_accuracy	calculated_RT
1.085	7.034	SP_W	1.0	n/a	n/a	1.0	4.293	Plaus/Plaus_run-01/stereo_PW85.wav	1.0	1	2.146
8.123	5.641	SP_I	2.0	n/a	n/a	2.0	3.468	Plaus/Plaus_run-01/stereo_PI11.wav	2.0	1	2.548
13.777	6.77	SP_C	1.0	n/a	n/a	1.0	2.147	Plaus/Plaus_run-01/CoM08b.wav	1.0	1	2.897
20.549	7.327000000000001	SP_W	1.0	n/a	n/a	1.0	3.4789999999999996	Plaus/Plaus_run-01/stereo_PW72.wav	1.0	1	1.499
27.888	6.145	SP_C	1.0	n/a	n/a	1.0	0.858	Plaus/Plaus_run-01/CoM05d.wav	1.0	1	1.608
34.043	5.181	SP_I	2.0	n/a	n/a	2.0	2.866	Plaus/Plaus_run-01/stereo_PI65.wav	2.0	1	1.924
39.23	5.092	SP_S	1.0	n/a	n/a	1.0	3.3169999999999997	Plaus/Plaus_run-01/stereo_PC13.wav	1.0	1	2.254
44.334	7.355	SP_C	1.0	n/a	n/a	1.0	0.865	Plaus/Plaus_run-01/CoM06l.wav	1.0	1	1.615
51.69	7.47	SP_I	2.0	n/a	n/a	2.0	4.167	Plaus/Plaus_run-01/stereo_PI90.wav	2.0	1	1.996
59.162	7.399	SP_S	1.0	n/a	n/a	1.0	3.989	Plaus/Plaus_run-01/stereo_PC35.wav	1.0	1	1.722
66.568	5.685	SP_S	1.0	n/a	n/a	1.0	3.239	Plaus/Plaus_run-01/stereo_PC47.wav	1.0	1	2.2299999999999995
72.256	5.669	SP_W	1.0	n/a	n/a	1.0	3.515	Plaus/Plaus_run-01/stereo_PW19.wav	1.0	1	2.5090000000000003
77.92699999999998	7.9	SP_C	1.0	n/a	n/a	1.0	0.474	Plaus/Plaus_run-01/CoM03l.wav	1.0	1	1.224
85.833	5.145	SP_I	2.0	n/a	n/a	n/a	n/a	Plaus/Plaus_run-01/stereo_PI09.wav	n/a	0	n/a
90.987	6.9170000000000025	SP_W	1.0	n/a	n/a	1.0	3.622	Plaus/Plaus_run-01/stereo_PW30.wav	1.0	1	1.5019999999999998
97.909	5.738	SP_S	1.0	n/a	n/a	2.0	3.181	Plaus/Plaus_run-01/stereo_PC14.wav	2.0	0	2.01
103.647	6.276	SP_W	1.0	n/a	n/a	1.0	2.968	Plaus/Plaus_run-01/stereo_PW50.wav	1.0	1	2.146
109.935	5.49	SP_C	1.0	n/a	n/a	1.0	0.12	Plaus/Plaus_run-01/CoM03d.wav	1.0	1	0.87
115.439	5.7	SP_I	2.0	n/a	n/a	2.0	2.928	Plaus/Plaus_run-01/stereo_PI67.wav	2.0	1	2.037
121.143	7.237	SP_S	1.0	n/a	n/a	1.0	3.512	Plaus/Plaus_run-01/stereo_PC68.wav	1.0	1	1.5459999999999998
128.382	6.49	SP_C	1.0	n/a	n/a	1.0	0.8690000000000001	Plaus/Plaus_run-01/CoM03b.wav	1.0	1	1.6190000000000002
134.887	6.25	SP_W	1.0	n/a	n/a	1.0	3.1639999999999997	Plaus/Plaus_run-01/stereo_PW61.wav	1.0	1	2.184
141.142	6.952999999999999	SP_I	2.0	n/a	n/a	2.0	4.775	Plaus/Plaus_run-01/stereo_PI32.wav	2.0	1	2.6100000000000003
148.09799999999996	7.085	SP_C	1.0	n/a	n/a	1.0	0.579	Plaus/Plaus_run-01/CoM02e.wav	1.0	1	1.329
155.186	6.3610000000000015	SP_S	1.0	n/a	n/a	1.0	3.904	Plaus/Plaus_run-01/stereo_PC24.wav	1.0	1	1.646
161.558	5.1110000000000015	SP_W	1.0	n/a	n/a	1.0	3.23	Plaus/Plaus_run-01/stereo_PW53.wav	1.0	1	2.216
166.679	6.2860000000000005	SP_I	2.0	n/a	n/a	2.0	4.365	Plaus/Plaus_run-01/stereo_PI42.wav	2.0	1	2.1690000000000005
172.967	6.577000000000001	SP_S	1.0	n/a	n/a	2.0	3.214	Plaus/Plaus_run-01/stereo_PC57.wav	2.0	0	2.019
179.555	5.273	SP_W	1.0	n/a	n/a	n/a	n/a	Plaus/Plaus_run-01/stereo_PW18.wav	n/a	0	n/a
184.843	5.77	SP_C	1.0	n/a	n/a	1.0	0.598	Plaus/Plaus_run-01/CoM09b.wav	1.0	1	1.3479999999999999
190.614	6.731	SP_S	1.0	n/a	n/a	1.0	3.6519999999999997	Plaus/Plaus_run-01/stereo_PC26.wav	1.0	1	1.552
197.352	7.212999999999999	SP_I	2.0	n/a	n/a	2.0	3.9160000000000004	Plaus/Plaus_run-01/stereo_PI33.wav	2.0	1	1.9329999999999998
204.574	5.181	SP_S	1.0	n/a	n/a	1.0	2.773	Plaus/Plaus_run-01/stereo_PC01.wav	1.0	1	1.8320000000000003
209.762	6.238	SP_S	1.0	n/a	n/a	1.0	4.539	Plaus/Plaus_run-01/stereo_PC36.wav	1.0	1	2.4929999999999994
216.0	7.73	SP_C	1.0	n/a	n/a	1.0	1.742	Plaus/Plaus_run-01/CoM10e.wav	1.0	1	2.492
223.739	6.843	SP_I	2.0	n/a	n/a	2.0	4.091	Plaus/Plaus_run-01/stereo_PI45.wav	2.0	1	1.9640000000000004
230.594	6.101	SP_W	1.0	n/a	n/a	1.0	3.62	Plaus/Plaus_run-01/stereo_PW28.wav	1.0	1	1.6879999999999997
236.699	7.419	SP_W	1.0	n/a	n/a	n/a	n/a	Plaus/Plaus_run-01/stereo_PW86.wav	n/a	0	n/a
244.122	6.54	SP_C	1.0	n/a	n/a	1.0	0.799	Plaus/Plaus_run-01/CoM05e.wav	1.0	1	1.549
250.677	6.247000000000001	SP_I	2.0	n/a	n/a	2.0	4.232	Plaus/Plaus_run-01/stereo_PI12.wav	2.0	1	3.361
