onset	duration	trial_type	correct	window1_response	window1_RT	window2_response	window2_RT	stim_file	calculated_response	calculated_accuracy	calculated_RT
1.0915	6.895	G_F	2.0	n/a	n/a	2.0	2.8280000000000003	Gram/Gram_run-01/stereo_2MF57U2.wav	2.0	1	3.5780000000000003
7.9964	7.175	G_F	2.0	n/a	n/a	1.0	3.239	Gram/Gram_run-01/stereo_1MF15U3.wav	1.0	0	3.989
15.1851	6.5070000000000014	G_G	1.0	n/a	n/a	1.0	3.8110000000000004	Gram/Gram_run-01/stereo_1MF11G2.wav	1.0	1	2.631
21.7065	6.505	G_C	1.0	n/a	n/a	1.0	0.188	Gram/Gram_run-01/CoM09d.wav	1.0	1	0.938
28.2123	6.9479999999999995	G_F	2.0	n/a	n/a	1.0	3.878	Gram/Gram_run-01/stereo_2MF68U4.wav	1.0	0	3.152
35.1675	5.541	G_P	2.0	n/a	n/a	2.0	3.114	Gram/Gram_run-01/stereo_1MP37U3.wav	2.0	1	2.0789999999999997
40.7217	5.9479999999999995	G_G	1.0	n/a	n/a	1.0	4.197	Gram/Gram_run-01/stereo_2MF50G1.wav	1.0	1	2.1020000000000003
46.6761	6.013	G_F	2.0	n/a	n/a	n/a	n/a	Gram/Gram_run-01/stereo_1MF05U1.wav	n/a	0	n/a
52.6972	7.87	G_C	1.0	n/a	n/a	1.0	0.228	Gram/Gram_run-01/CoM01l.wav	1.0	1	0.978
60.5705	6.4979999999999976	G_G	1.0	n/a	n/a	2.0	5.18	Gram/Gram_run-01/stereo_1MF23G4.wav	2.0	0	2.9989999999999997
67.0753	6.184	G_F	2.0	n/a	n/a	1.0	2.864	Gram/Gram_run-01/stereo_2MF55U2.wav	1.0	0	3.614
73.264	6.83	G_C	1.0	n/a	n/a	1.0	3.0189999999999997	Gram/Gram_run-01/CoM10l.wav	1.0	1	3.769
80.1023	7.505	G_G	1.0	n/a	n/a	1.0	5.537999999999999	Gram/Gram_run-01/stereo_2MP96G4.wav	1.0	1	3.142999999999999
87.6086	7.1370000000000005	G_G	1.0	n/a	n/a	1.0	4.637	Gram/Gram_run-01/stereo_1MP47G4.wav	1.0	1	2.17
94.748	6.694	G_F	2.0	n/a	n/a	2.0	2.26	Gram/Gram_run-01/stereo_2MF61U3.wav	2.0	1	3.01
101.4529	5.39	G_C	1.0	n/a	n/a	1.0	1.4469999999999998	Gram/Gram_run-01/CoM01d.wav	1.0	1	2.197
106.8569	6.5760000000000005	G_G	1.0	n/a	n/a	1.0	3.0669999999999997	Gram/Gram_run-01/stereo_1MP35G2.wav	1.0	1	2.063
113.4451	5.3389999999999995	G_F	2.0	n/a	n/a	1.0	4.04	Gram/Gram_run-01/stereo_2MF69U4.wav	1.0	0	3.3020000000000005
118.7989	7.94	G_C	1.0	n/a	n/a	1.0	0.33399999999999996	Gram/Gram_run-01/CoM08l.wav	1.0	1	1.084
126.7476	6.006	G_P	2.0	n/a	n/a	2.0	3.613	Gram/Gram_run-01/stereo_1MP26U1.wav	2.0	1	1.637
132.7683	8.422	G_F	2.0	n/a	n/a	1.0	4.059	Gram/Gram_run-01/stereo_1MF06U1.wav	1.0	0	3.4639999999999995
141.1919	7.885	G_P	2.0	n/a	n/a	2.0	3.4189999999999996	Gram/Gram_run-01/stereo_2MP81U2.wav	2.0	1	2.534
149.082	6.1270000000000024	G_G	1.0	n/a	n/a	n/a	n/a	Gram/Gram_run-01/stereo_2MP83G2.wav	n/a	0	n/a
155.2198	5.765	G_C	1.0	n/a	n/a	1.0	0.845	Gram/Gram_run-01/CoM02b.wav	1.0	1	1.595
160.9908	6.706	G_P	2.0	n/a	n/a	1.0	4.408	Gram/Gram_run-01/stereo_2MP93U4.wav	1.0	0	2.008000000000001
167.7098	6.61	G_P	2.0	n/a	n/a	2.0	4.607	Gram/Gram_run-01/stereo_1MP28U1.wav	2.0	1	2.492000000000001
174.3313	6.63	G_C	1.0	n/a	n/a	1.0	1.76	Gram/Gram_run-01/CoM04b.wav	1.0	1	2.51
180.9695	5.665	G_P	2.0	n/a	n/a	2.0	3.992	Gram/Gram_run-01/stereo_1MP27U1.wav	2.0	1	1.9900000000000002
186.6404	7.55	G_G	1.0	n/a	n/a	n/a	n/a	Gram/Gram_run-01/stereo_2MP77G1.wav	n/a	0	n/a
194.1961	6.51	G_C	1.0	n/a	n/a	1.0	1.318	Gram/Gram_run-01/CoM03e.wav	1.0	1	2.068
200.7177	6.98	G_P	2.0	n/a	n/a	2.0	4.3919999999999995	Gram/Gram_run-01/stereo_2MP92U4.wav	2.0	1	2.043
207.7062	7.047999999999999	G_G	1.0	n/a	n/a	1.0	3.597	Gram/Gram_run-01/stereo_1MF12G2.wav	1.0	1	2.5629999999999997
214.7613	5.574	G_F	2.0	n/a	n/a	1.0	4.092	Gram/Gram_run-01/stereo_1MF04U1.wav	1.0	0	3.5039999999999996
220.3488	5.67	G_C	1.0	n/a	n/a	1.0	1.7009999999999998	Gram/Gram_run-01/CoM07d.wav	1.0	1	2.4509999999999996
226.0205	6.6160000000000005	G_P	2.0	n/a	n/a	2.0	3.458	Gram/Gram_run-01/stereo_1MP39U3.wav	2.0	1	2.454
232.6421	5.695	G_P	2.0	n/a	n/a	n/a	n/a	Gram/Gram_run-01/stereo_2MP82U2.wav	n/a	0	n/a
238.3464	6.6270000000000024	G_F	2.0	n/a	n/a	1.0	3.826	Gram/Gram_run-01/stereo_1MF13U3.wav	1.0	0	4.5760000000000005
244.9846	7.145	G_C	1.0	n/a	n/a	1.0	0.188	Gram/Gram_run-01/CoM08e.wav	1.0	1	0.938
252.1398	6.805	G_G	1.0	n/a	n/a	1.0	3.69	Gram/Gram_run-01/stereo_1MP41G3.wav	1.0	1	2.384
258.9458	7.519	G_P	2.0	n/a	n/a	2.0	3.1439999999999997	Gram/Gram_run-01/stereo_1MP38U3.wav	2.0	1	1.905
