onset	duration	trial_type	correct	window1_response	window1_RT	window2_response	window2_RT	stim_file	calculated_response	calculated_accuracy	calculated_RT
1.084	6.895	G_F	2.0	n/a	n/a	2.0	3.1430000000000002	Gram/Gram_run-01/stereo_2MF57U2.wav	2.0	1	3.893
7.99	7.175	G_F	2.0	n/a	n/a	2.0	2.633	Gram/Gram_run-01/stereo_1MF15U3.wav	2.0	1	3.383
15.178	6.5070000000000014	G_G	1.0	n/a	n/a	1.0	3.707	Gram/Gram_run-01/stereo_1MF11G2.wav	1.0	1	2.5269999999999997
21.7	6.505	G_C	1.0	1.0	0.47700000000000004	1.0	1.9980000000000002	Gram/Gram_run-01/CoM09d.wav	1.0	1	0.477
28.205	6.9479999999999995	G_F	2.0	n/a	n/a	n/a	n/a	Gram/Gram_run-01/stereo_2MF68U4.wav	n/a	0	n/a
35.16	5.541	G_P	2.0	n/a	n/a	2.0	2.503	Gram/Gram_run-01/stereo_1MP37U3.wav	2.0	1	1.468
40.714	5.9479999999999995	G_G	1.0	n/a	n/a	1.0	4.708	Gram/Gram_run-01/stereo_2MF50G1.wav	1.0	1	2.6130000000000004
46.669	6.013	G_F	2.0	n/a	n/a	2.0	3.8960000000000004	Gram/Gram_run-01/stereo_1MF05U1.wav	2.0	1	3.294
52.69	7.87	G_C	1.0	1.0	0.649	1.0	1.199	Gram/Gram_run-01/CoM01l.wav	1.0	1	0.649
60.563	6.4979999999999976	G_G	1.0	n/a	n/a	1.0	4.274	Gram/Gram_run-01/stereo_1MF23G4.wav	1.0	1	2.093
67.068	6.184	G_F	2.0	n/a	n/a	2.0	3.062	Gram/Gram_run-01/stereo_2MF55U2.wav	2.0	1	3.812
73.256	6.83	G_C	1.0	1.0	0.6559999999999999	1.0	1.219	Gram/Gram_run-01/CoM10l.wav	1.0	1	0.6559999999999999
80.094	7.505	G_G	1.0	n/a	n/a	2.0	5.294	Gram/Gram_run-01/stereo_2MP96G4.wav	2.0	0	2.899
87.6	7.1370000000000005	G_G	1.0	n/a	n/a	1.0	5.194	Gram/Gram_run-01/stereo_1MP47G4.wav	1.0	1	2.7270000000000003
94.739	6.694	G_F	2.0	n/a	n/a	2.0	2.403	Gram/Gram_run-01/stereo_2MF61U3.wav	2.0	1	3.153
101.444	5.39	G_C	1.0	1.0	0.6890000000000001	1.0	1.672	Gram/Gram_run-01/CoM01d.wav	1.0	1	0.6890000000000001
106.848	6.5760000000000005	G_G	1.0	n/a	n/a	1.0	3.5669999999999997	Gram/Gram_run-01/stereo_1MP35G2.wav	1.0	1	2.563
113.436	5.3389999999999995	G_F	2.0	n/a	n/a	n/a	n/a	Gram/Gram_run-01/stereo_2MF69U4.wav	n/a	0	n/a
118.79	7.94	G_C	1.0	n/a	n/a	1.0	0.03	Gram/Gram_run-01/CoM08l.wav	1.0	1	0.78
126.73	6.006	G_P	2.0	n/a	n/a	2.0	3.891	Gram/Gram_run-01/stereo_1MP26U1.wav	2.0	1	1.915
132.751	8.422	G_F	2.0	n/a	n/a	2.0	4.236000000000001	Gram/Gram_run-01/stereo_1MF06U1.wav	2.0	1	3.641000000000001
141.174	7.885	G_P	2.0	n/a	n/a	2.0	5.004	Gram/Gram_run-01/stereo_2MP81U2.wav	2.0	1	4.119
149.063	6.1270000000000024	G_G	1.0	n/a	n/a	2.0	3.625	Gram/Gram_run-01/stereo_2MP83G2.wav	2.0	0	2.5650000000000004
155.201	5.765	G_C	1.0	1.0	0.46299999999999997	1.0	1.4669999999999999	Gram/Gram_run-01/CoM02b.wav	1.0	1	0.463
160.972	6.706	G_P	2.0	n/a	n/a	2.0	4.561	Gram/Gram_run-01/stereo_2MP93U4.wav	2.0	1	2.1610000000000005
167.69400000000005	6.61	G_P	2.0	n/a	n/a	2.0	3.984	Gram/Gram_run-01/stereo_1MP28U1.wav	2.0	1	1.8690000000000007
174.31599999999997	6.63	G_C	1.0	n/a	n/a	1.0	0.078	Gram/Gram_run-01/CoM04b.wav	1.0	1	0.828
180.954	5.665	G_P	2.0	n/a	n/a	2.0	4.15	Gram/Gram_run-01/stereo_1MP27U1.wav	2.0	1	2.1480000000000006
186.625	7.55	G_G	1.0	n/a	n/a	1.0	4.066	Gram/Gram_run-01/stereo_2MP77G1.wav	1.0	1	1.9669999999999996
194.181	6.51	G_C	1.0	1.0	0.461	1.0	0.904	Gram/Gram_run-01/CoM03e.wav	1.0	1	0.461
200.702	6.98	G_P	2.0	n/a	n/a	2.0	4.502	Gram/Gram_run-01/stereo_2MP92U4.wav	2.0	1	2.1529999999999996
207.69099999999997	7.047999999999999	G_G	1.0	n/a	n/a	2.0	4.149	Gram/Gram_run-01/stereo_1MF12G2.wav	2.0	0	3.115
214.746	5.574	G_F	2.0	n/a	n/a	n/a	n/a	Gram/Gram_run-01/stereo_1MF04U1.wav	n/a	0	n/a
220.334	5.67	G_C	1.0	n/a	n/a	1.0	0.019	Gram/Gram_run-01/CoM07d.wav	1.0	1	0.769
226.005	6.6160000000000005	G_P	2.0	n/a	n/a	2.0	2.948	Gram/Gram_run-01/stereo_1MP39U3.wav	2.0	1	1.944
232.627	5.695	G_P	2.0	n/a	n/a	2.0	3.321	Gram/Gram_run-01/stereo_2MP82U2.wav	2.0	1	2.4000000000000004
238.331	6.6270000000000024	G_F	2.0	n/a	n/a	2.0	3.1239999999999997	Gram/Gram_run-01/stereo_1MF13U3.wav	2.0	1	3.874
244.969	7.145	G_C	1.0	1.0	0.7090000000000001	1.0	1.166	Gram/Gram_run-01/CoM08e.wav	1.0	1	0.7090000000000001
252.125	6.805	G_G	1.0	n/a	n/a	2.0	4.3260000000000005	Gram/Gram_run-01/stereo_1MP41G3.wav	2.0	0	3.0200000000000005
258.93	7.519	G_P	2.0	n/a	n/a	2.0	3.448	Gram/Gram_run-01/stereo_1MP38U3.wav	2.0	1	2.2089999999999996
