onset	duration	trial_type	correct	window1_response	window1_RT	window2_response	window2_RT	stim_file	calculated_response	calculated_accuracy	calculated_RT
1.084	3.5	P_R	1.0	n/a	n/a	1.0	1.5519999999999998	Phon/Phon_run-02/stereo_PR20.wav	1.0	1	1.3019999999999998
4.587	4.235	P_O	1.0	n/a	n/a	1.0	1.49	Phon/Phon_run-02/PC034.wav	1.0	1	1.24
8.824	3.375	P_R	1.0	n/a	n/a	1.0	1.2409999999999999	Phon/Phon_run-02/stereo_PR13.wav	1.0	1	0.9909999999999999
12.21	3.474	P_C	1.0	n/a	n/a	1.0	1.228	Phon/Phon_run-02/ContS12.wav	1.0	1	1.978
15.696	3.875	P_U	2.0	n/a	n/a	2.0	1.3130000000000002	Phon/Phon_run-02/PM025.wav	2.0	1	1.0630000000000002
19.582	3.726	P_R	1.0	n/a	n/a	1.0	1.071	Phon/Phon_run-02/stereo_PR22.wav	1.0	1	0.821
23.31900000000001	3.451	P_O	1.0	n/a	n/a	2.0	1.238	Phon/Phon_run-02/PC014.wav	2.0	0	0.988
26.771	3.779	P_C	1.0	n/a	n/a	1.0	1.084	Phon/Phon_run-02/ContS02.wav	1.0	1	1.834
30.558000000000003	3.821	P_U	2.0	n/a	n/a	2.0	1.9469999999999998	Phon/Phon_run-02/stereo_PU18.wav	2.0	1	1.6969999999999998
34.394	3.49	P_U	2.0	n/a	n/a	2.0	1.479	Phon/Phon_run-02/stereo_PU12.wav	2.0	1	1.229
37.897	4.38	P_C	1.0	n/a	n/a	1.0	1.409	Phon/Phon_run-02/ContS32.wav	1.0	1	2.159
42.284	4.0969999999999995	P_R	1.0	n/a	n/a	1.0	1.262	Phon/Phon_run-02/stereo_PR16.wav	1.0	1	1.012
46.387	3.5	P_O	1.0	n/a	n/a	1.0	1.587	Phon/Phon_run-02/PC022.wav	1.0	1	1.337
49.89	4.0760000000000005	P_R	1.0	n/a	n/a	1.0	2.109	Phon/Phon_run-02/stereo_PR08.wav	1.0	1	1.859
53.977	3.5	P_O	1.0	n/a	n/a	1.0	1.229	Phon/Phon_run-02/PC028.wav	1.0	1	0.9790000000000001
57.48	3.5	P_U	2.0	n/a	n/a	2.0	1.35	Phon/Phon_run-02/stereo_PU27.wav	2.0	1	1.1
60.982	3.819	P_C	1.0	n/a	n/a	1.0	1.199	Phon/Phon_run-02/ContS06.wav	1.0	1	1.949
64.80199999999999	4.25	P_O	1.0	n/a	n/a	1.0	1.1159999999999999	Phon/Phon_run-02/PC031.wav	1.0	1	0.8659999999999999
69.056	3.662	P_C	1.0	n/a	n/a	1.0	1.508	Phon/Phon_run-02/ContS36.wav	1.0	1	2.258
72.725	3.823	P_O	1.0	n/a	n/a	2.0	1.4680000000000002	Phon/Phon_run-02/PC023.wav	2.0	0	1.2180000000000002
76.562	4.323	P_C	1.0	n/a	n/a	1.0	1.396	Phon/Phon_run-02/ContS24.wav	1.0	1	2.146
80.898	3.865	P_U	2.0	n/a	n/a	2.0	1.9980000000000002	Phon/Phon_run-02/PM004.wav	2.0	1	1.7480000000000002
84.76799999999999	3.875	P_O	1.0	n/a	n/a	1.0	1.256	Phon/Phon_run-02/PC007.wav	1.0	1	1.006
88.655	4.25	P_U	2.0	n/a	n/a	2.0	1.57	Phon/Phon_run-02/PM011.wav	2.0	1	1.32
92.90799999999999	4.362	P_C	1.0	n/a	n/a	1.0	1.69	Phon/Phon_run-02/ContS30.wav	1.0	1	2.44
97.27799999999999	3.875	P_O	1.0	n/a	n/a	2.0	1.651	Phon/Phon_run-02/PC030.wav	2.0	0	1.401
101.165	3.3360000000000003	P_R	1.0	n/a	n/a	2.0	1.585	Phon/Phon_run-02/stereo_PR05.wav	2.0	0	1.335
104.501	4.113	P_U	2.0	n/a	n/a	1.0	1.6380000000000001	Phon/Phon_run-02/stereo_PU01.wav	1.0	0	1.3880000000000001
108.62100000000001	4.1739999999999995	P_U	2.0	n/a	n/a	2.0	1.704	Phon/Phon_run-02/PM029.wav	2.0	1	1.454
112.80799999999999	3.4539999999999997	P_C	1.0	n/a	n/a	1.0	1.249	Phon/Phon_run-02/ContS08.wav	1.0	1	1.999
116.277	3.446	P_R	1.0	n/a	n/a	1.0	1.348	Phon/Phon_run-02/stereo_PR30.wav	1.0	1	1.098
119.73	3.85	P_R	1.0	n/a	n/a	1.0	1.3969999999999998	Phon/Phon_run-02/stereo_PR07.wav	1.0	1	1.1469999999999998
123.583	3.438	P_U	2.0	n/a	n/a	2.0	1.766	Phon/Phon_run-02/stereo_PU02.wav	2.0	1	1.516
127.036	3.915	P_C	1.0	n/a	n/a	1.0	1.315	Phon/Phon_run-02/ContS20.wav	1.0	1	2.065
130.955	3.487	P_U	2.0	n/a	n/a	1.0	1.493	Phon/Phon_run-02/PM021.wav	1.0	0	1.243
134.442	3.965	P_C	1.0	n/a	n/a	1.0	1.702	Phon/Phon_run-02/ContS26.wav	1.0	1	2.452
138.411	3.792	P_R	1.0	n/a	n/a	1.0	1.4869999999999999	Phon/Phon_run-02/stereo_PR31.wav	1.0	1	1.2369999999999999
142.215	4.135	P_O	1.0	n/a	n/a	1.0	1.473	Phon/Phon_run-02/PC024.wav	1.0	1	1.223
146.351	3.875	P_U	2.0	n/a	n/a	2.0	1.571	Phon/Phon_run-02/PM010.wav	2.0	1	1.321
150.238	3.875	P_O	1.0	n/a	n/a	1.0	1.317	Phon/Phon_run-02/PC015.wav	1.0	1	1.067
154.124	4.245	P_C	1.0	n/a	n/a	1.0	1.9580000000000002	Phon/Phon_run-02/ContS14.wav	1.0	1	2.708
158.378	3.854	P_R	1.0	n/a	n/a	1.0	1.554	Phon/Phon_run-02/stereo_PR14.wav	1.0	1	1.304
162.247	4.239	P_O	1.0	n/a	n/a	1.0	1.256	Phon/Phon_run-02/PC008.wav	1.0	1	1.006
166.50099999999995	4.25	P_U	2.0	n/a	n/a	2.0	1.485	Phon/Phon_run-02/stereo_PU11.wav	2.0	1	1.235
170.75400000000005	3.523	P_C	1.0	n/a	n/a	1.0	1.258	Phon/Phon_run-02/ContS18.wav	1.0	1	2.008
174.29	3.429	P_O	1.0	n/a	n/a	1.0	1.2990000000000002	Phon/Phon_run-02/PC006.wav	1.0	1	1.0490000000000002
177.727	4.18	P_R	1.0	n/a	n/a	1.0	1.5930000000000002	Phon/Phon_run-02/stereo_PR32.wav	1.0	1	1.3430000000000002
181.91299999999998	4.104	P_R	1.0	n/a	n/a	1.0	1.099	Phon/Phon_run-02/stereo_PR24.wav	1.0	1	0.849
