onset	duration	trial_type	correct	window1_response	window1_RT	window2_response	window2_RT	stim_file	calculated_response	calculated_accuracy	calculated_RT
1.0934	7.632999999999999	G_P	2.0	n/a	n/a	2.0	4.387	Gram/Gram_run-02/stereo_1MP45U4.wav	2.0	1	2.2559999999999993
8.7323	7.315	G_F	2.0	n/a	n/a	2.0	5.069	Gram/Gram_run-02/stereo_1MF20U4.wav	2.0	1	4.359
16.0543	6.2829999999999995	G_P	2.0	n/a	n/a	2.0	3.31	Gram/Gram_run-02/stereo_1MP34U2.wav	2.0	1	2.218
22.3421	6.195	G_C	1.0	n/a	n/a	1.0	0.825	Gram/Gram_run-02/CoM06d.wav	1.0	1	1.575
28.5465	6.221	G_G	1.0	n/a	n/a	1.0	3.642	Gram/Gram_run-02/stereo_1MF02G1.wav	1.0	1	1.6019999999999999
34.769	5.801	G_F	2.0	n/a	n/a	2.0	4.452	Gram/Gram_run-02/stereo_2MF64U3.wav	2.0	1	5.202
40.5743	6.78	G_C	1.0	n/a	n/a	1.0	1.021	Gram/Gram_run-02/CoM07l.wav	1.0	1	1.771
47.3625	6.084	G_F	2.0	n/a	n/a	2.0	3.76	Gram/Gram_run-02/stereo_2MF56U2.wav	2.0	1	4.51
53.4512	7.5470000000000015	G_F	2.0	n/a	n/a	2.0	5.3839999999999995	Gram/Gram_run-02/stereo_1MF21U4.wav	2.0	1	4.633
61.0065	6.482	G_G	1.0	n/a	n/a	1.0	4.636	Gram/Gram_run-02/stereo_1MF24G4.wav	1.0	1	2.2750000000000004
67.4946	6.7810000000000015	G_P	2.0	n/a	n/a	2.0	4.062	Gram/Gram_run-02/stereo_2MP76U1.wav	2.0	1	1.8000000000000007
74.2828	6.643	G_P	2.0	n/a	n/a	2.0	3.325	Gram/Gram_run-02/stereo_2MP80U2.wav	2.0	1	2.369
80.9376	7.69	G_C	1.0	n/a	n/a	1.0	0.154	Gram/Gram_run-02/CoM06e.wav	1.0	1	0.904
88.639	6.352	G_F	2.0	n/a	n/a	2.0	3.7910000000000004	Gram/Gram_run-02/stereo_2MF63U3.wav	2.0	1	4.541
94.9947	5.801	G_G	1.0	n/a	n/a	n/a	n/a	Gram/Gram_run-02/stereo_1MF18G3.wav	n/a	0	n/a
100.8001	7.1129999999999995	G_P	2.0	n/a	n/a	2.0	4.048	Gram/Gram_run-02/stereo_1MP44U4.wav	2.0	1	1.6909999999999998
107.9218	6.78	G_C	1.0	n/a	n/a	1.0	0.26	Gram/Gram_run-02/CoM05b.wav	1.0	1	1.01
114.7101	6.7360000000000015	G_F	2.0	n/a	n/a	2.0	3.463	Gram/Gram_run-02/stereo_2MF58U2.wav	2.0	1	4.213
121.4494	6.0889999999999995	G_P	2.0	n/a	n/a	2.0	4.086	Gram/Gram_run-02/stereo_2MP87U3.wav	2.0	1	2.8740000000000006
127.5529	7.637	G_P	2.0	n/a	n/a	2.0	4.449	Gram/Gram_run-02/stereo_2MP73U1.wav	2.0	1	2.4219999999999997
135.1929	7.305	G_C	1.0	n/a	n/a	1.0	0.607	Gram/Gram_run-02/CoM02l.wav	1.0	1	1.357
142.4994	5.983	G_G	1.0	n/a	n/a	1.0	4.279	Gram/Gram_run-02/stereo_1MP42G3.wav	1.0	1	3.3569999999999998
148.4871	5.36	G_P	2.0	n/a	n/a	2.0	3.5060000000000002	Gram/Gram_run-02/stereo_1MP32U2.wav	2.0	1	2.4999999999999996
153.8576	7.145	G_C	1.0	n/a	n/a	1.0	0.847	Gram/Gram_run-02/CoM09e.wav	1.0	1	1.597
161.0128	6.28	G_F	2.0	n/a	n/a	2.0	4.648	Gram/Gram_run-02/stereo_1MF19U4.wav	2.0	1	3.9619999999999997
167.3005	6.63	G_C	1.0	n/a	n/a	1.0	0.628	Gram/Gram_run-02/CoM07b.wav	1.0	1	1.3780000000000001
173.9386	7.195	G_G	1.0	n/a	n/a	1.0	5.765	Gram/Gram_run-02/stereo_2MP89G3.wav	1.0	1	4.427
181.1437	5.1739999999999995	G_F	2.0	n/a	n/a	2.0	2.633	Gram/Gram_run-02/stereo_1MF07U2.wav	2.0	1	3.383
186.3308	6.944	G_P	2.0	n/a	n/a	2.0	4.132	Gram/Gram_run-02/stereo_2MP88U3.wav	2.0	1	3.0889999999999995
193.2858	6.0889999999999995	G_G	1.0	n/a	n/a	1.0	3.43	Gram/Gram_run-02/stereo_2MF66G3.wav	1.0	1	2.0560000000000005
199.3896	6.5	G_C	1.0	n/a	n/a	1.0	0.541	Gram/Gram_run-02/CoM01e.wav	1.0	1	1.291
205.8946	6.43	G_P	2.0	n/a	n/a	2.0	3.995	Gram/Gram_run-02/stereo_1MP43U4.wav	2.0	1	1.713
212.3325	6.19	G_G	1.0	n/a	n/a	2.0	2.9130000000000003	Gram/Gram_run-02/stereo_2MP84G2.wav	2.0	0	1.9810000000000003
218.537	7.114	G_G	1.0	n/a	n/a	1.0	4.5489999999999995	Gram/Gram_run-02/stereo_1MP29G1.wav	1.0	1	2.361
225.6587	6.731	G_F	2.0	n/a	n/a	2.0	5.236000000000001	Gram/Gram_run-02/stereo_2MF53U1.wav	2.0	1	4.665000000000001
232.3969	6.015	G_C	1.0	n/a	n/a	1.0	1.52	Gram/Gram_run-02/CoM02d.wav	1.0	1	2.27
238.4179	7.17	G_G	1.0	n/a	n/a	1.0	4.417	Gram/Gram_run-02/stereo_2MF71G4.wav	1.0	1	2.1679999999999993
245.5909	5.33	G_C	1.0	n/a	n/a	1.0	0.26899999999999996	Gram/Gram_run-02/CoM06b.wav	1.0	1	1.0190000000000001
250.9316	6.9689999999999985	G_F	2.0	n/a	n/a	2.0	4.408	Gram/Gram_run-02/stereo_2MF54U1.wav	2.0	1	3.8380000000000005
257.9045	7.6	G_G	1.0	n/a	n/a	1.0	4.088	Gram/Gram_run-02/stereo_2MF49G1.wav	1.0	1	1.899
