onset	duration	trial_type	correct	window1_response	window1_RT	window2_response	window2_RT	stim_file	calculated_response	calculated_accuracy	calculated_RT
1.15	6.343	SP_S	1.0	n/a	n/a	2.0	4.834	Plaus/Plaus_run-02/stereo_PC37.wav	2.0	0	2.672999999999999
7.5	6.345	SP_W	1.0	n/a	n/a	1.0	4.3260000000000005	Plaus/Plaus_run-02/stereo_PW74.wav	1.0	1	2.3570000000000007
13.85	6.095	SP_C	1.0	n/a	n/a	1.0	0.907	Plaus/Plaus_run-02/CoM10d.wav	1.0	1	1.6569999999999998
19.95	6.401	SP_I	2.0	n/a	n/a	1.0	3.4419999999999997	Plaus/Plaus_run-02/stereo_PI56.wav	1.0	0	2.575
26.366	6.407	SP_W	1.0	n/a	n/a	1.0	4.449	Plaus/Plaus_run-02/stereo_PW39.wav	1.0	1	2.422
32.783	6.8420000000000005	SP_I	2.0	n/a	n/a	2.0	4.345	Plaus/Plaus_run-02/stereo_PI44.wav	2.0	1	2.148
39.633	7.7	SP_C	1.0	n/a	n/a	1.0	0.7190000000000001	Plaus/Plaus_run-02/CoM07e.wav	1.0	1	1.469
47.333	5.756	SP_S	1.0	n/a	n/a	1.0	3.342	Plaus/Plaus_run-02/stereo_PC03.wav	1.0	1	2.4000000000000004
53.1	7.372000000000001	SP_S	1.0	n/a	n/a	1.0	4.2639999999999985	Plaus/Plaus_run-02/stereo_PC82.wav	1.0	1	2.208999999999999
60.483000000000004	6.095	SP_C	1.0	n/a	n/a	1.0	1.166	Plaus/Plaus_run-02/CoM04d.wav	1.0	1	1.916
66.583	6.303	SP_I	2.0	n/a	n/a	2.0	3.057	Plaus/Plaus_run-02/stereo_PI23.wav	2.0	1	2.0729999999999995
72.899	5.655	SP_I	2.0	n/a	n/a	2.0	3.319	Plaus/Plaus_run-02/stereo_PI22.wav	2.0	1	2.4
78.566	6.85	SP_C	1.0	n/a	n/a	1.0	0.5529999999999999	Plaus/Plaus_run-02/CoM08d.wav	1.0	1	1.3030000000000002
85.416	6.9179999999999975	SP_S	1.0	n/a	n/a	1.0	4.052	Plaus/Plaus_run-02/stereo_PC79.wav	1.0	1	1.806
92.34899999999999	5.233	SP_I	2.0	n/a	n/a	2.0	3.2760000000000002	Plaus/Plaus_run-02/stereo_PI21.wav	2.0	1	2.236
97.583	6.385	SP_S	1.0	n/a	n/a	1.0	3.301	Plaus/Plaus_run-02/stereo_PC46.wav	1.0	1	2.3390000000000004
103.98299999999999	6.282	SP_W	1.0	n/a	n/a	2.0	3.307	Plaus/Plaus_run-02/stereo_PW64.wav	2.0	0	2.201
110.266	7.69	SP_C	1.0	n/a	n/a	1.0	0.9890000000000001	Plaus/Plaus_run-02/CoM04e.wav	1.0	1	1.739
117.96600000000001	6.316	SP_I	2.0	n/a	n/a	2.0	3.988	Plaus/Plaus_run-02/stereo_PI34.wav	2.0	1	1.831
124.28200000000001	5.47	SP_C	1.0	n/a	n/a	1.0	0.591	Plaus/Plaus_run-02/CoM10b.wav	1.0	1	1.341
129.766	5.636	SP_I	2.0	n/a	n/a	2.0	2.682	Plaus/Plaus_run-02/stereo_PI55.wav	2.0	1	1.843
135.416	7.461	SP_W	1.0	n/a	n/a	1.0	3.549	Plaus/Plaus_run-02/stereo_PW83.wav	1.0	1	1.5450000000000004
142.882	5.48	SP_C	1.0	n/a	n/a	1.0	2.251	Plaus/Plaus_run-02/CoM01b.wav	1.0	1	3.0010000000000003
148.366	6.2120000000000015	SP_W	1.0	n/a	n/a	1.0	3.455	Plaus/Plaus_run-02/stereo_PW08.wav	1.0	1	2.5940000000000003
154.582	4.694	SP_W	1.0	n/a	n/a	1.0	3.175	Plaus/Plaus_run-02/stereo_PW07.wav	1.0	1	2.3
159.282	6.197	SP_I	2.0	n/a	n/a	2.0	3.957	Plaus/Plaus_run-02/stereo_PI43.wav	2.0	1	1.897
165.482	6.1979999999999995	SP_S	1.0	n/a	n/a	1.0	2.444	Plaus/Plaus_run-02/stereo_PC59.wav	1.0	1	1.443
171.68200000000004	7.345	SP_C	1.0	n/a	n/a	1.0	0.977	Plaus/Plaus_run-02/CoM05l.wav	1.0	1	1.727
179.032	5.2429999999999986	SP_S	1.0	n/a	n/a	1.0	3.5460000000000003	Plaus/Plaus_run-02/stereo_PC02.wav	1.0	1	2.6670000000000003
184.282	6.82	SP_C	1.0	n/a	n/a	1.0	0.748	Plaus/Plaus_run-02/CoM09l.wav	1.0	1	1.4980000000000002
191.115	7.183	SP_I	2.0	n/a	n/a	2.0	3.7319999999999998	Plaus/Plaus_run-02/stereo_PI78.wav	2.0	1	1.814
198.299	6.727	SP_W	1.0	n/a	n/a	1.0	3.505	Plaus/Plaus_run-02/stereo_PW40.wav	1.0	1	1.2719999999999998
205.032	5.181	SP_S	1.0	n/a	n/a	2.0	3.037	Plaus/Plaus_run-02/stereo_PC60.wav	2.0	0	1.747
210.215	7.135	SP_W	1.0	n/a	n/a	1.0	3.992	Plaus/Plaus_run-02/stereo_PW73.wav	1.0	1	2.06
217.365	6.76	SP_C	1.0	n/a	n/a	1.0	0.555	Plaus/Plaus_run-02/CoM04l.wav	1.0	1	1.3050000000000002
224.132	6.682	SP_I	2.0	n/a	n/a	2.0	3.985	Plaus/Plaus_run-02/stereo_PI75.wav	2.0	1	1.989
230.815	6.002999999999999	SP_W	1.0	n/a	n/a	1.0	3.673	Plaus/Plaus_run-02/stereo_PW63.wav	1.0	1	2.526
236.832	5.0760000000000005	SP_W	1.0	n/a	n/a	1.0	3.323	Plaus/Plaus_run-02/stereo_PW05.wav	1.0	1	2.545
241.915	6.218	SP_S	1.0	n/a	n/a	1.0	3.935	Plaus/Plaus_run-02/stereo_PC69.wav	1.0	1	1.6980000000000004
248.148	6.569	SP_S	1.0	n/a	n/a	1.0	4.416	Plaus/Plaus_run-02/stereo_PC70.wav	1.0	1	2.5400000000000005
