onset	duration	trial_type	correct	window1_response	window1_RT	window2_response	window2_RT	stim_file	calculated_response	calculated_accuracy	calculated_RT
1.134	7.034	SP_W	1.0	n/a	n/a	1.0	4.172	Plaus/Plaus_run-01/stereo_PW85.wav	1.0	1	2.0249999999999995
8.184	5.641	SP_I	2.0	n/a	n/a	2.0	2.197	Plaus/Plaus_run-01/stereo_PI11.wav	2.0	1	1.277
13.834	6.77	SP_C	1.0	n/a	n/a	1.0	0.376	Plaus/Plaus_run-01/CoM08b.wav	1.0	1	1.126
20.617	7.327000000000001	SP_W	1.0	n/a	n/a	1.0	3.236	Plaus/Plaus_run-01/stereo_PW72.wav	1.0	1	1.2560000000000002
27.95	6.145	SP_C	1.0	n/a	n/a	1.0	0.27399999999999997	Plaus/Plaus_run-01/CoM05d.wav	1.0	1	1.024
34.1	5.181	SP_I	2.0	n/a	n/a	2.0	2.859	Plaus/Plaus_run-01/stereo_PI65.wav	2.0	1	1.9169999999999998
39.283	5.092	SP_S	1.0	n/a	n/a	1.0	2.985	Plaus/Plaus_run-01/stereo_PC13.wav	1.0	1	1.9219999999999997
44.383	7.355	SP_C	1.0	n/a	n/a	1.0	0.674	Plaus/Plaus_run-01/CoM06l.wav	1.0	1	1.424
51.75	7.47	SP_I	2.0	n/a	n/a	2.0	4.07	Plaus/Plaus_run-01/stereo_PI90.wav	2.0	1	1.8990000000000005
59.233	7.399	SP_S	1.0	n/a	n/a	1.0	4.013	Plaus/Plaus_run-01/stereo_PC35.wav	1.0	1	1.746
66.633	5.685	SP_S	1.0	n/a	n/a	1.0	2.167	Plaus/Plaus_run-01/stereo_PC47.wav	1.0	1	1.1579999999999997
72.333	5.669	SP_W	1.0	n/a	n/a	1.0	3.642	Plaus/Plaus_run-01/stereo_PW19.wav	1.0	1	2.636
78.017	7.9	SP_C	1.0	n/a	n/a	1.0	1.0979999999999999	Plaus/Plaus_run-01/CoM03l.wav	1.0	1	1.848
85.917	5.145	SP_I	2.0	n/a	n/a	2.0	2.74	Plaus/Plaus_run-01/stereo_PI09.wav	2.0	1	1.7320000000000004
91.066	6.9170000000000025	SP_W	1.0	n/a	n/a	1.0	4.096	Plaus/Plaus_run-01/stereo_PW30.wav	1.0	1	1.976
97.983	5.738	SP_S	1.0	n/a	n/a	1.0	2.6710000000000003	Plaus/Plaus_run-01/stereo_PC14.wav	1.0	1	1.5000000000000002
103.733	6.276	SP_W	1.0	n/a	n/a	1.0	2.7310000000000003	Plaus/Plaus_run-01/stereo_PW50.wav	1.0	1	1.9090000000000003
110.016	5.49	SP_C	1.0	n/a	n/a	1.0	0.903	Plaus/Plaus_run-01/CoM03d.wav	1.0	1	1.653
115.516	5.7	SP_I	2.0	n/a	n/a	2.0	3.32	Plaus/Plaus_run-01/stereo_PI67.wav	2.0	1	2.429
121.216	7.237	SP_S	1.0	n/a	n/a	1.0	3.635	Plaus/Plaus_run-01/stereo_PC68.wav	1.0	1	1.6689999999999996
128.466	6.49	SP_C	1.0	n/a	n/a	1.0	0.201	Plaus/Plaus_run-01/CoM03b.wav	1.0	1	0.9510000000000001
134.966	6.25	SP_W	1.0	n/a	n/a	2.0	2.7430000000000003	Plaus/Plaus_run-01/stereo_PW61.wav	2.0	0	1.7630000000000003
141.216	6.952999999999999	SP_I	2.0	n/a	n/a	2.0	3.747	Plaus/Plaus_run-01/stereo_PI32.wav	2.0	1	1.5819999999999999
148.183	7.085	SP_C	1.0	n/a	n/a	1.0	0.8029999999999999	Plaus/Plaus_run-01/CoM02e.wav	1.0	1	1.553
155.283	6.3610000000000015	SP_S	1.0	n/a	n/a	1.0	3.906	Plaus/Plaus_run-01/stereo_PC24.wav	1.0	1	1.6480000000000001
161.649	5.1110000000000015	SP_W	1.0	n/a	n/a	2.0	3.1189999999999998	Plaus/Plaus_run-01/stereo_PW53.wav	2.0	0	2.1050000000000004
166.766	6.2860000000000005	SP_I	2.0	n/a	n/a	2.0	4.012	Plaus/Plaus_run-01/stereo_PI42.wav	2.0	1	1.8159999999999998
173.06599999999997	6.577000000000001	SP_S	1.0	n/a	n/a	1.0	3.637	Plaus/Plaus_run-01/stereo_PC57.wav	1.0	1	2.442
179.649	5.273	SP_W	1.0	n/a	n/a	n/a	n/a	Plaus/Plaus_run-01/stereo_PW18.wav	n/a	0	n/a
184.933	5.77	SP_C	1.0	1.0	0.364	1.0	0.7809999999999999	Plaus/Plaus_run-01/CoM09b.wav	1.0	1	0.364
190.716	6.731	SP_S	1.0	n/a	n/a	1.0	3.403	Plaus/Plaus_run-01/stereo_PC26.wav	1.0	1	1.303
197.449	7.212999999999999	SP_I	2.0	n/a	n/a	2.0	3.7539999999999996	Plaus/Plaus_run-01/stereo_PI33.wav	2.0	1	1.771
204.666	5.181	SP_S	1.0	n/a	n/a	1.0	2.773	Plaus/Plaus_run-01/stereo_PC01.wav	1.0	1	1.8320000000000003
209.849	6.238	SP_S	1.0	n/a	n/a	1.0	3.219	Plaus/Plaus_run-01/stereo_PC36.wav	1.0	1	1.1729999999999996
216.099	7.73	SP_C	1.0	n/a	n/a	1.0	0.156	Plaus/Plaus_run-01/CoM10e.wav	1.0	1	0.906
223.832	6.843	SP_I	2.0	n/a	n/a	2.0	3.6319999999999997	Plaus/Plaus_run-01/stereo_PI45.wav	2.0	1	1.5050000000000003
230.682	6.101	SP_W	1.0	n/a	n/a	1.0	3.775	Plaus/Plaus_run-01/stereo_PW28.wav	1.0	1	1.8429999999999995
236.799	7.419	SP_W	1.0	n/a	n/a	1.0	4.9430000000000005	Plaus/Plaus_run-01/stereo_PW86.wav	1.0	1	2.907000000000001
244.232	6.54	SP_C	1.0	n/a	n/a	1.0	0.516	Plaus/Plaus_run-01/CoM05e.wav	1.0	1	1.266
250.782	6.247000000000001	SP_I	2.0	n/a	n/a	2.0	4.196000000000001	Plaus/Plaus_run-01/stereo_PI12.wav	2.0	1	3.3250000000000015
