onset	duration	trial_type	correct	window1_response	window1_RT	window2_response	window2_RT	stim_file	calculated_response	calculated_accuracy	calculated_RT
1.0918	4.2	S_U	2.0	n/a	n/a	2.0	1.207	Sem/Sem_run-01/stereo_1SU41A0.wav	2.0	1	0.9570000000000001
5.2953	3.596	S_C	1.0	n/a	n/a	1.0	0.414	Sem/Sem_run-01/ContS29.wav	1.0	1	1.164
8.898	3.425	S_U	2.0	n/a	n/a	2.0	1.819	Sem/Sem_run-01/stereo_2SU87A0.wav	2.0	1	1.569
12.3338	3.933	S_H	1.0	n/a	n/a	1.0	1.287	Sem/Sem_run-01/stereo_1SH13A0.wav	1.0	1	1.037
16.2699	4.323	S_H	1.0	n/a	n/a	1.0	1.7830000000000001	Sem/Sem_run-01/stereo_1SH05A0.wav	1.0	1	1.533
20.6064	4.073	S_C	1.0	n/a	n/a	1.0	0.599	Sem/Sem_run-01/ContS31.wav	1.0	1	1.349
24.6927	3.869	S_L	1.0	n/a	n/a	2.0	2.155	Sem/Sem_run-01/stereo_2SL63A0.wav	2.0	0	1.9049999999999998
28.5634	3.75	S_L	1.0	n/a	n/a	1.0	1.8630000000000002	Sem/Sem_run-01/stereo_1SL29A0.wav	1.0	1	1.613
32.3161	4.3660000000000005	S_U	2.0	n/a	n/a	2.0	1.9869999999999999	Sem/Sem_run-01/stereo_2SU78A0.wav	2.0	1	1.737
36.6859	3.3	S_L	1.0	n/a	n/a	n/a	n/a	Sem/Sem_run-01/stereo_1SL17A0.wav	n/a	0	n/a
39.9885	3.884	S_C	1.0	n/a	n/a	1.0	1.281	Sem/Sem_run-01/ContS05.wav	1.0	1	2.0309999999999997
43.8755	4.371	S_H	1.0	n/a	n/a	2.0	1.82	Sem/Sem_run-01/stereo_2SH58A0.wav	2.0	0	1.57
48.2606	4.329	S_L	1.0	n/a	n/a	1.0	1.6059999999999999	Sem/Sem_run-01/stereo_2SL72A0.wav	1.0	1	1.356
52.5971	3.94	S_H	1.0	n/a	n/a	2.0	1.569	Sem/Sem_run-01/stereo_2SH57A0.wav	2.0	0	1.319
56.55	4.2	S_U	2.0	n/a	n/a	1.0	1.635	Sem/Sem_run-01/stereo_2SU83A0.wav	1.0	0	1.385
60.753	3.474	S_C	1.0	n/a	n/a	1.0	0.201	Sem/Sem_run-01/ContS11.wav	1.0	1	0.9510000000000001
64.2389	4.271	S_L	1.0	n/a	n/a	1.0	1.9469999999999998	Sem/Sem_run-01/stereo_1SL26A0.wav	1.0	1	1.697
68.5248	3.91	S_L	1.0	n/a	n/a	2.0	1.771	Sem/Sem_run-01/stereo_1SL25A0.wav	2.0	0	1.521
72.4443	4.479	S_C	1.0	n/a	n/a	1.0	0.254	Sem/Sem_run-01/ContS25.wav	1.0	1	1.004
76.9309	3.378	S_U	2.0	n/a	n/a	2.0	1.659	Sem/Sem_run-01/stereo_2SU81A0.wav	2.0	1	1.409
80.3167	3.42	S_L	1.0	n/a	n/a	1.0	1.683	Sem/Sem_run-01/stereo_1SL27A0.wav	1.0	1	1.433
83.7479	4.3439999999999985	S_L	1.0	n/a	n/a	2.0	1.922	Sem/Sem_run-01/stereo_1SL30A0.wav	2.0	0	1.672
88.1008	3.909	S_L	1.0	n/a	n/a	1.0	1.402	Sem/Sem_run-01/stereo_2SL71A0.wav	1.0	1	1.152
92.0205	3.867	S_H	1.0	n/a	n/a	2.0	1.232	Sem/Sem_run-01/stereo_1SH04A0.wav	2.0	0	0.982
95.8902	3.828	S_U	2.0	n/a	n/a	n/a	n/a	Sem/Sem_run-01/stereo_1SU37A0.wav	n/a	0	n/a
99.7264	4.565	S_C	1.0	n/a	n/a	1.0	0.354	Sem/Sem_run-01/ContS35.wav	1.0	1	1.104
104.2964	3.3	S_U	2.0	n/a	n/a	2.0	1.568	Sem/Sem_run-01/stereo_1SU35A0.wav	2.0	1	1.318
107.5986	3.477	S_L	1.0	n/a	n/a	1.0	1.87	Sem/Sem_run-01/stereo_2SL65A0.wav	1.0	1	1.62
111.0845	3.83	S_H	1.0	n/a	n/a	2.0	1.361	Sem/Sem_run-01/stereo_1SH07A0.wav	2.0	0	1.111
114.9207	4.3439999999999985	S_C	1.0	n/a	n/a	1.0	0.14800000000000002	Sem/Sem_run-01/ContS07.wav	1.0	1	0.898
119.2738	3.5	S_H	1.0	n/a	n/a	2.0	1.0759999999999998	Sem/Sem_run-01/stereo_1SH03A0.wav	2.0	0	0.8259999999999998
122.7765	3.919	S_U	2.0	n/a	n/a	1.0	1.2229999999999999	Sem/Sem_run-01/stereo_1SU45A0.wav	1.0	0	0.9730000000000001
126.697	3.5	S_H	1.0	n/a	n/a	n/a	n/a	Sem/Sem_run-01/stereo_1SH06A0.wav	n/a	0	n/a
130.1996	3.392	S_L	1.0	n/a	n/a	2.0	1.3659999999999999	Sem/Sem_run-01/stereo_2SL62A0.wav	2.0	0	1.116
133.6021	3.54	S_C	1.0	n/a	n/a	1.0	0.318	Sem/Sem_run-01/ContS19.wav	1.0	1	1.068
137.1547	4.4	S_H	1.0	n/a	n/a	1.0	1.7590000000000001	Sem/Sem_run-01/stereo_1SH15A0.wav	1.0	1	1.509
141.5578	3.342	S_H	1.0	n/a	n/a	n/a	n/a	Sem/Sem_run-01/stereo_1SH11A0.wav	n/a	0	n/a
144.9103	3.385	S_U	2.0	n/a	n/a	2.0	1.5419999999999998	Sem/Sem_run-01/stereo_1SU44A0.wav	2.0	1	1.2919999999999998
148.2972	3.4160000000000004	S_H	1.0	n/a	n/a	1.0	2.121	Sem/Sem_run-01/stereo_2SH56A0.wav	1.0	1	1.871
151.7164	3.849	S_U	2.0	n/a	n/a	2.0	1.3259999999999998	Sem/Sem_run-01/stereo_2SU82A0.wav	2.0	1	1.0759999999999998
155.5691	3.934	S_C	1.0	n/a	n/a	1.0	0.963	Sem/Sem_run-01/ContS13.wav	1.0	1	1.713
159.506	4.309	S_L	1.0	n/a	n/a	1.0	1.395	Sem/Sem_run-01/stereo_2SL64A0.wav	1.0	1	1.145
163.8257	4.413	S_C	1.0	n/a	n/a	1.0	0.381	Sem/Sem_run-01/ContS17.wav	1.0	1	1.131
168.2456	4.2	S_U	2.0	n/a	n/a	2.0	1.6980000000000002	Sem/Sem_run-01/stereo_2SU90A0.wav	2.0	1	1.4480000000000002
172.4489	3.846	S_U	2.0	n/a	n/a	1.0	1.506	Sem/Sem_run-01/stereo_2SU88A0.wav	1.0	0	1.256
176.3017	3.3939999999999997	S_C	1.0	n/a	n/a	1.0	0.17800000000000002	Sem/Sem_run-01/ContS01.wav	1.0	1	0.928
179.7041	4.013	S_C	1.0	n/a	n/a	1.0	1.1640000000000001	Sem/Sem_run-01/ContS23.wav	1.0	1	1.914
183.7237	4.227	S_H	1.0	n/a	n/a	n/a	n/a	Sem/Sem_run-01/stereo_1SH08A0.wav	n/a	0	n/a
