onset	duration	trial_type	correct	window1_response	window1_RT	window2_response	window2_RT	stim_file	calculated_response	calculated_accuracy	calculated_RT
1.0924	3.5	P_R	1.0	n/a	n/a	1.0	1.646	Phon/Phon_run-02/stereo_PR20.wav	1.0	1	1.396
4.595	4.235	P_O	1.0	n/a	n/a	1.0	1.35	Phon/Phon_run-02/PC034.wav	1.0	1	1.1
8.8325	3.375	P_R	1.0	n/a	n/a	1.0	1.339	Phon/Phon_run-02/stereo_PR13.wav	1.0	1	1.089
12.2183	3.474	P_C	1.0	n/a	n/a	1.0	0.34700000000000003	Phon/Phon_run-02/ContS12.wav	1.0	1	1.097
15.7041	3.875	P_U	2.0	n/a	n/a	2.0	1.339	Phon/Phon_run-02/PM025.wav	2.0	1	1.089
19.5903	3.726	P_R	1.0	n/a	n/a	1.0	1.2109999999999999	Phon/Phon_run-02/stereo_PR22.wav	1.0	1	0.9610000000000001
23.3263	3.451	P_O	1.0	n/a	n/a	1.0	2.075	Phon/Phon_run-02/PC014.wav	1.0	1	1.8250000000000002
26.7799	3.779	P_C	1.0	n/a	n/a	1.0	0.5379999999999999	Phon/Phon_run-02/ContS02.wav	1.0	1	1.2879999999999998
30.566	3.821	P_U	2.0	n/a	n/a	2.0	2.094	Phon/Phon_run-02/stereo_PU18.wav	2.0	1	1.8439999999999999
34.402	3.49	P_U	2.0	n/a	n/a	n/a	n/a	Phon/Phon_run-02/stereo_PU12.wav	n/a	0	n/a
37.9046	4.38	P_C	1.0	n/a	n/a	1.0	0.192	Phon/Phon_run-02/ContS32.wav	1.0	1	0.942
42.291000000000004	4.0969999999999995	P_R	1.0	n/a	n/a	1.0	2.1319999999999997	Phon/Phon_run-02/stereo_PR16.wav	1.0	1	1.8820000000000001
46.394	3.5	P_O	1.0	n/a	n/a	1.0	1.871	Phon/Phon_run-02/PC022.wav	1.0	1	1.621
49.8966	4.0760000000000005	P_R	1.0	n/a	n/a	1.0	1.755	Phon/Phon_run-02/stereo_PR08.wav	1.0	1	1.505
53.983000000000004	3.5	P_O	1.0	n/a	n/a	n/a	n/a	Phon/Phon_run-02/PC028.wav	n/a	0	n/a
57.4856	3.5	P_U	2.0	n/a	n/a	2.0	1.52	Phon/Phon_run-02/stereo_PU27.wav	2.0	1	1.27
60.9881	3.819	P_C	1.0	n/a	n/a	1.0	0.332	Phon/Phon_run-02/ContS06.wav	1.0	1	1.082
64.8086	4.25	P_O	1.0	n/a	n/a	1.0	1.399	Phon/Phon_run-02/PC031.wav	1.0	1	1.149
69.062	3.662	P_C	1.0	n/a	n/a	1.0	0.146	Phon/Phon_run-02/ContS36.wav	1.0	1	0.896
72.7312	3.823	P_O	1.0	n/a	n/a	1.0	1.409	Phon/Phon_run-02/PC023.wav	1.0	1	1.159
76.5674	4.323	P_C	1.0	n/a	n/a	1.0	0.377	Phon/Phon_run-02/ContS24.wav	1.0	1	1.127
80.9038	3.865	P_U	2.0	n/a	n/a	2.0	2.123	Phon/Phon_run-02/PM004.wav	2.0	1	1.8730000000000002
84.7733	3.875	P_O	1.0	n/a	n/a	1.0	1.56	Phon/Phon_run-02/PC007.wav	1.0	1	1.31
88.6594	4.25	P_U	2.0	n/a	n/a	2.0	1.567	Phon/Phon_run-02/PM011.wav	2.0	1	1.317
92.9126	4.362	P_C	1.0	n/a	n/a	1.0	0.114	Phon/Phon_run-02/ContS30.wav	1.0	1	0.864
97.2825	3.875	P_O	1.0	n/a	n/a	1.0	1.48	Phon/Phon_run-02/PC030.wav	1.0	1	1.23
101.1687	3.3360000000000003	P_R	1.0	n/a	n/a	1.0	1.001	Phon/Phon_run-02/stereo_PR05.wav	1.0	1	0.7509999999999999
104.5077	4.113	P_U	2.0	n/a	n/a	2.0	2.526	Phon/Phon_run-02/stereo_PU01.wav	2.0	1	2.276
108.6273	4.1739999999999995	P_U	2.0	n/a	n/a	2.0	2.39	Phon/Phon_run-02/PM029.wav	2.0	1	2.14
112.8137	3.4539999999999997	P_C	1.0	1.0	0.5329999999999999	n/a	n/a	Phon/Phon_run-02/ContS08.wav	1.0	1	0.5329999999999999
116.2828	3.446	P_R	1.0	n/a	n/a	1.0	1.367	Phon/Phon_run-02/stereo_PR30.wav	1.0	1	1.117
119.7352	3.85	P_R	1.0	n/a	n/a	1.0	1.3969999999999998	Phon/Phon_run-02/stereo_PR07.wav	1.0	1	1.1469999999999998
123.588	3.438	P_U	2.0	n/a	n/a	2.0	1.8630000000000002	Phon/Phon_run-02/stereo_PU02.wav	2.0	1	1.613
127.0406	3.915	P_C	1.0	n/a	n/a	1.0	0.079	Phon/Phon_run-02/ContS20.wav	1.0	1	0.829
130.9601	3.487	P_U	2.0	n/a	n/a	2.0	1.649	Phon/Phon_run-02/PM021.wav	2.0	1	1.399
134.46200000000002	3.965	P_C	1.0	n/a	n/a	1.0	0.1	Phon/Phon_run-02/ContS26.wav	1.0	1	0.85
138.4315	3.792	P_R	1.0	n/a	n/a	1.0	1.7269999999999999	Phon/Phon_run-02/stereo_PR31.wav	1.0	1	1.477
142.2343	4.135	P_O	1.0	n/a	n/a	1.0	1.525	Phon/Phon_run-02/PC024.wav	1.0	1	1.275
146.3717	3.875	P_U	2.0	n/a	n/a	2.0	2.283	Phon/Phon_run-02/PM010.wav	2.0	1	2.033
150.2579	3.875	P_O	1.0	n/a	n/a	1.0	1.849	Phon/Phon_run-02/PC015.wav	1.0	1	1.599
154.144	4.245	P_C	1.0	n/a	n/a	1.0	1.139	Phon/Phon_run-02/ContS14.wav	1.0	1	1.889
158.3971	3.854	P_R	1.0	n/a	n/a	1.0	1.291	Phon/Phon_run-02/stereo_PR14.wav	1.0	1	1.041
162.2662	4.239	P_O	1.0	n/a	n/a	1.0	2.0340000000000003	Phon/Phon_run-02/PC008.wav	1.0	1	1.7840000000000003
166.5192	4.25	P_U	2.0	n/a	n/a	2.0	1.8219999999999998	Phon/Phon_run-02/stereo_PU11.wav	2.0	1	1.572
170.7726	3.523	P_C	1.0	n/a	n/a	1.0	0.745	Phon/Phon_run-02/ContS18.wav	1.0	1	1.495
174.3085	3.429	P_O	1.0	n/a	n/a	1.0	1.508	Phon/Phon_run-02/PC006.wav	1.0	1	1.258
177.7443	4.18	P_R	1.0	n/a	n/a	1.0	1.4169999999999998	Phon/Phon_run-02/stereo_PR32.wav	1.0	1	1.1669999999999998
181.9307	4.104	P_R	1.0	n/a	n/a	1.0	2.282	Phon/Phon_run-02/stereo_PR24.wav	1.0	1	2.032
