onset	duration	trial_type	correct	window1_response	window1_RT	window2_response	window2_RT	stim_file	calculated_response	calculated_accuracy	calculated_RT
1.0918	4.2	S_U	2.0	n/a	n/a	2.0	1.8719999999999999	Sem/Sem_run-01/stereo_1SU41A0.wav	2.0	1	1.622
5.2953	3.596	S_C	1.0	n/a	n/a	1.0	0.444	Sem/Sem_run-01/ContS29.wav	1.0	1	1.194
8.898	3.425	S_U	2.0	n/a	n/a	n/a	n/a	Sem/Sem_run-01/stereo_2SU87A0.wav	n/a	0	n/a
12.3338	3.933	S_H	1.0	n/a	n/a	1.0	1.57	Sem/Sem_run-01/stereo_1SH13A0.wav	1.0	1	1.32
16.2699	4.323	S_H	1.0	n/a	n/a	1.0	1.222	Sem/Sem_run-01/stereo_1SH05A0.wav	1.0	1	0.972
20.6064	4.073	S_C	1.0	n/a	n/a	1.0	0.228	Sem/Sem_run-01/ContS31.wav	1.0	1	0.978
24.6927	3.869	S_L	1.0	n/a	n/a	1.0	1.713	Sem/Sem_run-01/stereo_2SL63A0.wav	1.0	1	1.463
28.5634	3.75	S_L	1.0	n/a	n/a	1.0	1.645	Sem/Sem_run-01/stereo_1SL29A0.wav	1.0	1	1.395
32.3161	4.3660000000000005	S_U	2.0	n/a	n/a	2.0	2.483	Sem/Sem_run-01/stereo_2SU78A0.wav	2.0	1	2.233
36.6859	3.3	S_L	1.0	n/a	n/a	1.0	1.564	Sem/Sem_run-01/stereo_1SL17A0.wav	1.0	1	1.314
39.9885	3.884	S_C	1.0	n/a	n/a	1.0	0.045	Sem/Sem_run-01/ContS05.wav	1.0	1	0.795
43.8755	4.371	S_H	1.0	n/a	n/a	1.0	2.9210000000000003	Sem/Sem_run-01/stereo_2SH58A0.wav	1.0	1	2.6710000000000003
48.2606	4.329	S_L	1.0	n/a	n/a	1.0	1.452	Sem/Sem_run-01/stereo_2SL72A0.wav	1.0	1	1.202
52.5971	3.94	S_H	1.0	n/a	n/a	2.0	2.217	Sem/Sem_run-01/stereo_2SH57A0.wav	2.0	0	1.967
56.55	4.2	S_U	2.0	n/a	n/a	1.0	2.695	Sem/Sem_run-01/stereo_2SU83A0.wav	1.0	0	2.445
60.753	3.474	S_C	1.0	n/a	n/a	1.0	1.858	Sem/Sem_run-01/ContS11.wav	1.0	1	2.608
64.2389	4.271	S_L	1.0	n/a	n/a	1.0	2.674	Sem/Sem_run-01/stereo_1SL26A0.wav	1.0	1	2.424
68.5248	3.91	S_L	1.0	n/a	n/a	1.0	2.1069999999999998	Sem/Sem_run-01/stereo_1SL25A0.wav	1.0	1	1.8570000000000002
72.4443	4.479	S_C	1.0	n/a	n/a	1.0	0.11900000000000001	Sem/Sem_run-01/ContS25.wav	1.0	1	0.869
76.9309	3.378	S_U	2.0	n/a	n/a	1.0	1.396	Sem/Sem_run-01/stereo_2SU81A0.wav	1.0	0	1.146
80.3167	3.42	S_L	1.0	n/a	n/a	2.0	1.597	Sem/Sem_run-01/stereo_1SL27A0.wav	2.0	0	1.347
83.7479	4.3439999999999985	S_L	1.0	n/a	n/a	1.0	2.494	Sem/Sem_run-01/stereo_1SL30A0.wav	1.0	1	2.244
88.1008	3.909	S_L	1.0	n/a	n/a	1.0	1.683	Sem/Sem_run-01/stereo_2SL71A0.wav	1.0	1	1.433
92.0205	3.867	S_H	1.0	n/a	n/a	1.0	2.424	Sem/Sem_run-01/stereo_1SH04A0.wav	1.0	1	2.174
95.8902	3.828	S_U	2.0	n/a	n/a	n/a	n/a	Sem/Sem_run-01/stereo_1SU37A0.wav	n/a	0	n/a
99.7264	4.565	S_C	1.0	n/a	n/a	1.0	0.057999999999999996	Sem/Sem_run-01/ContS35.wav	1.0	1	0.808
104.2964	3.3	S_U	2.0	n/a	n/a	1.0	1.5090000000000001	Sem/Sem_run-01/stereo_1SU35A0.wav	1.0	0	1.259
107.5986	3.477	S_L	1.0	n/a	n/a	1.0	1.663	Sem/Sem_run-01/stereo_2SL65A0.wav	1.0	1	1.413
111.0845	3.83	S_H	1.0	n/a	n/a	1.0	2.204	Sem/Sem_run-01/stereo_1SH07A0.wav	1.0	1	1.9540000000000002
114.9207	4.3439999999999985	S_C	1.0	n/a	n/a	1.0	0.586	Sem/Sem_run-01/ContS07.wav	1.0	1	1.3359999999999999
119.2738	3.5	S_H	1.0	n/a	n/a	1.0	2.029	Sem/Sem_run-01/stereo_1SH03A0.wav	1.0	1	1.779
122.7765	3.919	S_U	2.0	n/a	n/a	2.0	2.009	Sem/Sem_run-01/stereo_1SU45A0.wav	2.0	1	1.759
126.697	3.5	S_H	1.0	n/a	n/a	1.0	0.98	Sem/Sem_run-01/stereo_1SH06A0.wav	1.0	1	0.73
130.1996	3.392	S_L	1.0	n/a	n/a	1.0	1.4969999999999999	Sem/Sem_run-01/stereo_2SL62A0.wav	1.0	1	1.247
133.6021	3.54	S_C	1.0	n/a	n/a	1.0	0.21	Sem/Sem_run-01/ContS19.wav	1.0	1	0.96
137.1547	4.4	S_H	1.0	n/a	n/a	1.0	2.039	Sem/Sem_run-01/stereo_1SH15A0.wav	1.0	1	1.7890000000000001
141.5578	3.342	S_H	1.0	n/a	n/a	1.0	1.484	Sem/Sem_run-01/stereo_1SH11A0.wav	1.0	1	1.234
144.9103	3.385	S_U	2.0	n/a	n/a	1.0	1.871	Sem/Sem_run-01/stereo_1SU44A0.wav	1.0	0	1.621
148.2972	3.4160000000000004	S_H	1.0	n/a	n/a	1.0	2.2119999999999997	Sem/Sem_run-01/stereo_2SH56A0.wav	1.0	1	1.9620000000000002
151.7164	3.849	S_U	2.0	n/a	n/a	1.0	2.021	Sem/Sem_run-01/stereo_2SU82A0.wav	1.0	0	1.771
155.5691	3.934	S_C	1.0	n/a	n/a	1.0	0.203	Sem/Sem_run-01/ContS13.wav	1.0	1	0.9530000000000001
159.506	4.309	S_L	1.0	n/a	n/a	1.0	2.592	Sem/Sem_run-01/stereo_2SL64A0.wav	1.0	1	2.342
163.8257	4.413	S_C	1.0	n/a	n/a	1.0	1.531	Sem/Sem_run-01/ContS17.wav	1.0	1	2.2809999999999997
168.2456	4.2	S_U	2.0	n/a	n/a	2.0	1.9040000000000001	Sem/Sem_run-01/stereo_2SU90A0.wav	2.0	1	1.654
172.4489	3.846	S_U	2.0	n/a	n/a	2.0	2.366	Sem/Sem_run-01/stereo_2SU88A0.wav	2.0	1	2.116
176.3017	3.3939999999999997	S_C	1.0	n/a	n/a	1.0	0.15	Sem/Sem_run-01/ContS01.wav	1.0	1	0.9
179.7041	4.013	S_C	1.0	n/a	n/a	1.0	0.12	Sem/Sem_run-01/ContS23.wav	1.0	1	0.87
183.7237	4.227	S_H	1.0	n/a	n/a	1.0	1.2229999999999999	Sem/Sem_run-01/stereo_1SH08A0.wav	1.0	1	0.9730000000000001
