onset	duration	trial_type	correct	window1_response	window1_RT	window2_response	window2_RT	stim_file	calculated_response	calculated_accuracy	calculated_RT
1.0915	6.895	G_F	2.0	n/a	n/a	2.0	4.383	Gram/Gram_run-01/stereo_2MF57U2.wav	2.0	1	5.133
7.9964	7.175	G_F	2.0	n/a	n/a	1.0	3.492	Gram/Gram_run-01/stereo_1MF15U3.wav	1.0	0	4.242
15.1851	6.5070000000000014	G_G	1.0	n/a	n/a	2.0	5.247999999999999	Gram/Gram_run-01/stereo_1MF11G2.wav	2.0	0	4.067999999999998
21.7065	6.505	G_C	1.0	1.0	0.45799999999999996	1.0	1.112	Gram/Gram_run-01/CoM09d.wav	1.0	1	0.458
28.2123	6.9479999999999995	G_F	2.0	n/a	n/a	1.0	5.5329999999999995	Gram/Gram_run-01/stereo_2MF68U4.wav	1.0	0	4.807
35.1675	5.541	G_P	2.0	n/a	n/a	2.0	3.806	Gram/Gram_run-01/stereo_1MP37U3.wav	2.0	1	2.771
40.7217	5.9479999999999995	G_G	1.0	n/a	n/a	1.0	4.665	Gram/Gram_run-01/stereo_2MF50G1.wav	1.0	1	2.5700000000000003
46.6761	6.013	G_F	2.0	n/a	n/a	n/a	n/a	Gram/Gram_run-01/stereo_1MF05U1.wav	n/a	0	n/a
52.6972	7.87	G_C	1.0	1.0	0.602	1.0	0.8140000000000001	Gram/Gram_run-01/CoM01l.wav	1.0	1	0.602
60.5705	6.4979999999999976	G_G	1.0	n/a	n/a	1.0	4.36	Gram/Gram_run-01/stereo_1MF23G4.wav	1.0	1	2.1790000000000003
67.0753	6.184	G_F	2.0	n/a	n/a	1.0	4.02	Gram/Gram_run-01/stereo_2MF55U2.wav	1.0	0	4.77
73.264	6.83	G_C	1.0	1.0	0.551	1.0	0.784	Gram/Gram_run-01/CoM10l.wav	1.0	1	0.551
80.1023	7.505	G_G	1.0	n/a	n/a	2.0	4.9319999999999995	Gram/Gram_run-01/stereo_2MP96G4.wav	2.0	0	2.537000000000001
87.6086	7.1370000000000005	G_G	1.0	n/a	n/a	1.0	4.74	Gram/Gram_run-01/stereo_1MP47G4.wav	1.0	1	2.2730000000000006
94.74799999999999	6.694	G_F	2.0	n/a	n/a	1.0	4.125	Gram/Gram_run-01/stereo_2MF61U3.wav	1.0	0	4.875
101.4529	5.39	G_C	1.0	1.0	0.28	n/a	n/a	Gram/Gram_run-01/CoM01d.wav	1.0	1	0.28
106.8569	6.5760000000000005	G_G	1.0	n/a	n/a	1.0	3.465	Gram/Gram_run-01/stereo_1MP35G2.wav	1.0	1	2.461
113.4451	5.3389999999999995	G_F	2.0	n/a	n/a	1.0	4.17	Gram/Gram_run-01/stereo_2MF69U4.wav	1.0	0	3.4320000000000004
118.7989	7.94	G_C	1.0	1.0	0.519	1.0	0.6559999999999999	Gram/Gram_run-01/CoM08l.wav	1.0	1	0.519
126.7476	6.006	G_P	2.0	n/a	n/a	2.0	4.726	Gram/Gram_run-01/stereo_1MP26U1.wav	2.0	1	2.75
132.7683	8.422	G_F	2.0	n/a	n/a	1.0	4.115	Gram/Gram_run-01/stereo_1MF06U1.wav	1.0	0	3.5199999999999996
141.1919	7.885	G_P	2.0	n/a	n/a	2.0	3.6919999999999997	Gram/Gram_run-01/stereo_2MP81U2.wav	2.0	1	2.807
149.082	6.127000000000002	G_G	1.0	n/a	n/a	1.0	4.1	Gram/Gram_run-01/stereo_2MP83G2.wav	1.0	1	3.04
155.2198	5.765	G_C	1.0	1.0	0.397	n/a	n/a	Gram/Gram_run-01/CoM02b.wav	1.0	1	0.397
160.9908	6.706	G_P	2.0	n/a	n/a	2.0	4.772	Gram/Gram_run-01/stereo_2MP93U4.wav	2.0	1	2.3720000000000008
167.7098	6.61	G_P	2.0	n/a	n/a	2.0	4.82	Gram/Gram_run-01/stereo_1MP28U1.wav	2.0	1	2.705000000000001
174.3313	6.63	G_C	1.0	1.0	0.6609999999999999	1.0	1.138	Gram/Gram_run-01/CoM04b.wav	1.0	1	0.6609999999999999
180.9695	5.665	G_P	2.0	n/a	n/a	n/a	n/a	Gram/Gram_run-01/stereo_1MP27U1.wav	2.0	1	3.378
186.6404	7.55	G_G	1.0	2.0	0.465	2.0	4.739	Gram/Gram_run-01/stereo_2MP77G1.wav	2.0	0	2.6399999999999997
194.1961	6.51	G_C	1.0	2.0	0.603	1.0	0.8	Gram/Gram_run-01/CoM03e.wav	2.0	0	0.603
200.7177	6.98	G_P	2.0	n/a	n/a	2.0	5.79	Gram/Gram_run-01/stereo_2MP92U4.wav	2.0	1	3.441
207.7062	7.047999999999999	G_G	1.0	n/a	n/a	1.0	5.652	Gram/Gram_run-01/stereo_1MF12G2.wav	1.0	1	4.618
214.7613	5.574	G_F	2.0	n/a	n/a	n/a	n/a	Gram/Gram_run-01/stereo_1MF04U1.wav	n/a	0	n/a
220.3488	5.67	G_C	1.0	n/a	n/a	2.0	0.34600000000000003	Gram/Gram_run-01/CoM07d.wav	2.0	0	1.096
226.0205	6.6160000000000005	G_P	2.0	n/a	n/a	2.0	3.1430000000000002	Gram/Gram_run-01/stereo_1MP39U3.wav	2.0	1	2.139
232.6421	5.695	G_P	2.0	n/a	n/a	2.0	3.635	Gram/Gram_run-01/stereo_2MP82U2.wav	2.0	1	2.714
238.3464	6.627000000000002	G_F	2.0	n/a	n/a	1.0	3.926	Gram/Gram_run-01/stereo_1MF13U3.wav	1.0	0	4.676
244.9846	7.145	G_C	1.0	1.0	0.46	1.0	0.762	Gram/Gram_run-01/CoM08e.wav	1.0	1	0.46
252.1398	6.805	G_G	1.0	n/a	n/a	2.0	4.314	Gram/Gram_run-01/stereo_1MP41G3.wav	2.0	0	3.008
258.9458	7.519	G_P	2.0	n/a	n/a	2.0	4.495	Gram/Gram_run-01/stereo_1MP38U3.wav	2.0	1	3.2560000000000002
