onset	duration	trial_type	correct	window1_response	window1_RT	window2_response	window2_RT	stim_file	calculated_response	calculated_accuracy	calculated_RT
1.0925	3.4539999999999997	P_R	1.0	n/a	n/a	1.0	1.3159999999999998	Phon/Phon_run-01/stereo_PR01.wav	1.0	1	1.0659999999999998
4.5615	3.767	P_O	1.0	n/a	n/a	1.0	1.47	Phon/Phon_run-01/PC018.wav	1.0	1	1.22
8.3317	3.391	P_O	1.0	n/a	n/a	2.0	2.051	Phon/Phon_run-01/PC009.wav	2.0	0	1.8010000000000002
11.7341	4.374	P_C	1.0	n/a	n/a	1.0	0.14	Phon/Phon_run-01/ContS11.wav	1.0	1	0.89
16.1207	3.345	P_U	2.0	n/a	n/a	n/a	n/a	Phon/Phon_run-01/PM002.wav	n/a	0	n/a
19.473	4.4510000000000005	P_C	1.0	n/a	n/a	1.0	0.349	Phon/Phon_run-01/ContS21.wav	1.0	1	1.099
23.9275	4.382	P_O	1.0	n/a	n/a	2.0	2.138	Phon/Phon_run-01/PC005.wav	2.0	0	1.888
28.314	3.3	P_U	2.0	n/a	n/a	2.0	1.946	Phon/Phon_run-01/stereo_PU26.wav	2.0	1	1.696
31.6165	4.324	P_C	1.0	n/a	n/a	1.0	0.134	Phon/Phon_run-01/ContS03.wav	1.0	1	0.884
35.9529	4.378	P_R	1.0	n/a	n/a	1.0	2.2	Phon/Phon_run-01/stereo_PR29.wav	1.0	1	1.9500000000000002
40.3393	3.4810000000000003	P_U	2.0	n/a	n/a	2.0	1.571	Phon/Phon_run-01/PM020.wav	2.0	1	1.321
43.8252	4.393	P_O	1.0	n/a	n/a	n/a	n/a	Phon/Phon_run-01/PC027.wav	n/a	0	n/a
48.2284	4.4	P_R	1.0	n/a	n/a	1.0	1.485	Phon/Phon_run-01/stereo_PR11.wav	1.0	1	1.235
52.6316	3.884	P_C	1.0	n/a	n/a	1.0	0.374	Phon/Phon_run-01/ContS05.wav	1.0	1	1.124
56.5186	3.891	P_U	2.0	n/a	n/a	n/a	n/a	Phon/Phon_run-01/stereo_PU28.wav	n/a	0	n/a
60.4213	4.4	P_O	1.0	n/a	n/a	n/a	n/a	Phon/Phon_run-01/PC013.wav	n/a	0	n/a
64.8247	3.513	P_C	1.0	n/a	n/a	1.0	0.423	Phon/Phon_run-01/ContS17.wav	1.0	1	1.173
68.3439	4.4	P_U	2.0	n/a	n/a	n/a	n/a	Phon/Phon_run-01/PM027.wav	n/a	0	n/a
72.7471	4.4	P_O	1.0	n/a	n/a	1.0	2.021	Phon/Phon_run-01/PC021.wav	1.0	1	1.771
77.1504	4.496	P_C	1.0	1.0	0.642	1.0	0.358	Phon/Phon_run-01/ContS29.wav	1.0	1	0.642
81.6536	3.3680000000000003	P_R	1.0	n/a	n/a	n/a	n/a	Phon/Phon_run-01/stereo_PR25.wav	n/a	0	n/a
85.0239	3.95	P_O	1.0	n/a	n/a	1.0	2.1430000000000002	Phon/Phon_run-01/PC012.wav	1.0	1	1.8929999999999998
88.9768	3.95	P_U	2.0	n/a	n/a	2.0	1.4509999999999998	Phon/Phon_run-01/PM003.wav	2.0	1	1.2009999999999998
92.9297	3.939	P_O	1.0	n/a	n/a	2.0	1.7269999999999999	Phon/Phon_run-01/PC004.wav	2.0	0	1.477
96.8826	3.59	P_C	1.0	1.0	0.685	1.0	0.309	Phon/Phon_run-01/ContS27.wav	1.0	1	0.685
100.4851	4.296	P_U	2.0	n/a	n/a	n/a	n/a	Phon/Phon_run-01/stereo_PU21.wav	n/a	0	n/a
104.7882	3.862	P_R	1.0	n/a	n/a	1.0	1.412	Phon/Phon_run-01/stereo_PR26.wav	1.0	1	1.162
108.6576	3.95	P_O	1.0	n/a	n/a	1.0	2.608	Phon/Phon_run-01/PC026.wav	1.0	1	2.358
112.6107	3.5	P_O	1.0	n/a	n/a	1.0	2.117	Phon/Phon_run-01/PC025.wav	1.0	1	1.867
116.1133	4.013	P_C	1.0	n/a	n/a	1.0	0.33899999999999997	Phon/Phon_run-01/ContS23.wav	1.0	1	1.089
120.1329	3.792	P_R	1.0	n/a	n/a	1.0	2.2680000000000002	Phon/Phon_run-01/stereo_PR18.wav	1.0	1	2.018
123.9359	3.346	P_U	2.0	n/a	n/a	2.0	1.672	Phon/Phon_run-01/stereo_PU19.wav	2.0	1	1.422
127.2885	3.891	P_R	1.0	n/a	n/a	1.0	1.891	Phon/Phon_run-01/stereo_PR03.wav	1.0	1	1.641
131.1913	3.355	P_O	1.0	n/a	n/a	n/a	n/a	Phon/Phon_run-01/PC003.wav	n/a	0	n/a
134.5604	3.951	P_C	1.0	n/a	n/a	1.0	0.765	Phon/Phon_run-01/ContS15.wav	1.0	1	1.5150000000000001
138.5144	3.74	P_U	2.0	n/a	n/a	n/a	n/a	Phon/Phon_run-01/stereo_PU16.wav	n/a	0	n/a
142.2671	3.95	P_R	1.0	n/a	n/a	1.0	1.015	Phon/Phon_run-01/stereo_PR10.wav	1.0	1	0.7649999999999999
146.22	3.464	P_C	1.0	n/a	n/a	1.0	0.201	Phon/Phon_run-01/ContS09.wav	1.0	1	0.9510000000000001
149.6892	4.275	P_R	1.0	n/a	n/a	1.0	1.855	Phon/Phon_run-01/stereo_PR04.wav	1.0	1	1.605
153.9756	3.95	P_U	2.0	n/a	n/a	n/a	n/a	Phon/Phon_run-01/PM023.wav	n/a	0	n/a
157.9284	4.4	P_U	2.0	n/a	n/a	2.0	2.415	Phon/Phon_run-01/PM001.wav	2.0	1	2.165
162.3319	3.665	P_C	1.0	n/a	n/a	1.0	0.133	Phon/Phon_run-01/ContS35.wav	1.0	1	0.883
166.0011	3.463	P_O	1.0	n/a	n/a	n/a	n/a	Phon/Phon_run-01/PC017.wav	2.0	0	2.595
169.4703	4.332	P_R	1.0	2.0	0.132	n/a	n/a	Phon/Phon_run-01/stereo_PR19.wav	n/a	0	n/a
173.8067	4.083	P_C	1.0	n/a	n/a	1.0	0.091	Phon/Phon_run-01/ContS33.wav	1.0	1	0.841
177.893	3.5	P_R	1.0	n/a	n/a	n/a	n/a	Phon/Phon_run-01/stereo_PR17.wav	n/a	0	n/a
181.3956	4.2669999999999995	P_U	2.0	n/a	n/a	2.0	2.042	Phon/Phon_run-01/PM009.wav	2.0	1	1.7919999999999998
185.6658	3.4389999999999996	P_R	1.0	n/a	n/a	1.0	1.31	Phon/Phon_run-01/stereo_PR09.wav	1.0	1	1.06
