onset	duration	trial_type	correct	window1_response	window1_RT	window2_response	window2_RT	stim_file	calculated_response	calculated_accuracy	calculated_RT
1.0907	4.2010000000000005	S_U	2.0	n/a	n/a	1.0	2.11	Sem/Sem_run-02/stereo_1SU33A0.wav	1.0	0	1.8599999999999999
5.2947	3.486	S_U	2.0	n/a	n/a	2.0	2.097	Sem/Sem_run-02/stereo_2SU85A0.wav	2.0	1	1.847
8.7817	3.8539999999999996	S_H	1.0	n/a	n/a	1.0	1.2819999999999998	Sem/Sem_run-02/stereo_2SH50A0.wav	1.0	1	1.0319999999999998
12.6503	3.454	S_C	1.0	n/a	n/a	1.0	0.865	Sem/Sem_run-02/ContS08.wav	1.0	1	1.615
16.1195	4.33	S_H	1.0	n/a	n/a	1.0	1.371	Sem/Sem_run-02/stereo_1SH10A0.wav	1.0	1	1.121
20.4559	3.872	S_L	1.0	n/a	n/a	1.0	1.867	Sem/Sem_run-02/stereo_2SL61A0.wav	1.0	1	1.617
24.3421	3.885	S_L	1.0	n/a	n/a	1.0	1.5219999999999998	Sem/Sem_run-02/stereo_1SL23A0.wav	1.0	1	1.2719999999999998
28.2293	4.2	S_U	2.0	n/a	n/a	1.0	1.281	Sem/Sem_run-02/stereo_1SU42A0.wav	1.0	0	1.031
32.4326	3.321	S_L	1.0	n/a	n/a	1.0	1.58	Sem/Sem_run-02/stereo_1SL16A0.wav	1.0	1	1.33
35.7684	3.59	S_C	1.0	n/a	n/a	1.0	1.123	Sem/Sem_run-02/ContS26.wav	1.0	1	1.873
39.3711	4.4	S_H	1.0	n/a	n/a	1.0	1.331	Sem/Sem_run-02/stereo_2SH60A0.wav	1.0	1	1.081
43.7745	4.311	S_L	1.0	n/a	n/a	1.0	2.011	Sem/Sem_run-02/stereo_2SL75A0.wav	1.0	1	1.7610000000000001
48.0943	3.912	S_H	1.0	n/a	n/a	1.0	1.486	Sem/Sem_run-02/stereo_2SH59A0.wav	1.0	1	1.236
52.0138	4.4	S_U	2.0	n/a	n/a	1.0	1.4180000000000001	Sem/Sem_run-02/stereo_2SU84A0.wav	1.0	0	1.168
56.4171	3.4210000000000003	S_U	2.0	n/a	n/a	n/a	n/a	Sem/Sem_run-02/stereo_1SU43A0.wav	n/a	0	n/a
59.8529	3.8539999999999996	S_C	1.0	n/a	n/a	n/a	n/a	Sem/Sem_run-02/ContS02.wav	n/a	0	n/a
63.7217	4.37	S_L	1.0	n/a	n/a	1.0	2.03	Sem/Sem_run-02/stereo_1SL19A0.wav	1.0	1	1.7799999999999998
68.0927	3.862	S_L	1.0	n/a	n/a	1.0	1.39	Sem/Sem_run-02/stereo_1SL18A0.wav	1.0	1	1.14
71.9622	4.462	S_C	1.0	n/a	n/a	2.0	1.264	Sem/Sem_run-02/ContS22.wav	2.0	0	2.0140000000000002
76.4321	3.406	S_L	1.0	n/a	n/a	1.0	1.301	Sem/Sem_run-02/stereo_1SL21A0.wav	1.0	1	1.051
79.8515	3.355	S_U	2.0	n/a	n/a	1.0	1.245	Sem/Sem_run-02/stereo_1SU36A0.wav	1.0	0	0.9950000000000001
83.2206	4.324	S_C	1.0	n/a	n/a	1.0	0.8759999999999999	Sem/Sem_run-02/ContS04.wav	1.0	1	1.626
87.5571	4.253	S_L	1.0	n/a	n/a	1.0	1.114	Sem/Sem_run-02/stereo_1SL24A0.wav	1.0	1	0.8640000000000001
91.8112	3.839	S_L	1.0	n/a	n/a	1.0	1.4069999999999998	Sem/Sem_run-02/stereo_2SL70A0.wav	1.0	1	1.1569999999999998
95.664	4.395	S_C	1.0	n/a	n/a	1.0	1.217	Sem/Sem_run-02/ContS14.wav	1.0	1	1.967
100.0673	3.8739999999999997	S_H	1.0	n/a	n/a	1.0	0.5710000000000001	Sem/Sem_run-02/stereo_1SH09A0.wav	1.0	1	0.32100000000000006
103.9534	3.75	S_U	2.0	n/a	n/a	n/a	n/a	Sem/Sem_run-02/stereo_1SU32A0.wav	n/a	0	n/a
107.7063	3.641	S_C	1.0	n/a	n/a	1.0	0.069	Sem/Sem_run-02/ContS34.wav	1.0	1	0.819
111.359	3.338	S_U	2.0	n/a	n/a	2.0	1.385	Sem/Sem_run-02/stereo_1SU31A0.wav	2.0	1	1.135
114.7114	3.45	S_L	1.0	n/a	n/a	1.0	1.178	Sem/Sem_run-02/stereo_2SL68A0.wav	1.0	1	0.9279999999999999
118.164	3.8510000000000004	S_H	1.0	n/a	n/a	n/a	n/a	Sem/Sem_run-02/stereo_1SH14A0.wav	n/a	0	n/a
122.0178	3.459	S_H	1.0	n/a	n/a	n/a	n/a	Sem/Sem_run-02/stereo_1SH01A0.wav	n/a	0	n/a
125.4869	3.512	S_C	1.0	n/a	n/a	1.0	0.257	Sem/Sem_run-02/ContS16.wav	1.0	1	1.0070000000000001
129.0062	3.489	S_H	1.0	n/a	n/a	1.0	1.492	Sem/Sem_run-02/stereo_1SH12A0.wav	1.0	1	1.242
132.5087	3.8489999999999998	S_U	2.0	n/a	n/a	2.0	1.5919999999999999	Sem/Sem_run-02/stereo_2SU86A0.wav	2.0	1	1.342
136.3616	3.46	S_L	1.0	n/a	n/a	1.0	1.215	Sem/Sem_run-02/stereo_1SL28A0.wav	1.0	1	0.9650000000000001
139.8308	4.53	S_C	1.0	n/a	n/a	1.0	0.5760000000000001	Sem/Sem_run-02/ContS32.wav	1.0	1	1.326
144.3674	4.351	S_H	1.0	n/a	n/a	1.0	1.6469999999999998	Sem/Sem_run-02/stereo_2SH52A0.wav	1.0	1	1.3969999999999998
148.7216	3.48	S_H	1.0	n/a	n/a	1.0	1.71	Sem/Sem_run-02/stereo_2SH47A0.wav	1.0	1	1.46
152.2075	3.3	S_H	1.0	n/a	n/a	1.0	1.288	Sem/Sem_run-02/stereo_2SH53A0.wav	1.0	1	1.038
155.5099	3.847	S_U	2.0	n/a	n/a	1.0	1.2570000000000001	Sem/Sem_run-02/stereo_1SU39A0.wav	1.0	0	1.007
159.3627	3.923	S_C	1.0	n/a	n/a	1.0	1.242	Sem/Sem_run-02/ContS10.wav	1.0	1	1.992
163.2989	3.7510000000000003	S_U	2.0	n/a	n/a	1.0	1.5290000000000001	Sem/Sem_run-02/stereo_2SU80A0.wav	1.0	0	1.279
167.0527	4.2	S_L	1.0	n/a	n/a	1.0	1.464	Sem/Sem_run-02/stereo_2SL66A0.wav	1.0	1	1.214
171.2559	3.99	S_C	1.0	1.0	0.575	1.0	0.966	Sem/Sem_run-02/ContS20.wav	1.0	1	0.575
175.2588	4.041	S_C	1.0	n/a	n/a	1.0	1.083	Sem/Sem_run-02/ContS28.wav	1.0	1	1.833
179.3117	4.2	S_U	2.0	n/a	n/a	1.0	1.182	Sem/Sem_run-02/stereo_2SU89A0.wav	1.0	0	0.9319999999999999
183.5149	4.368	S_H	1.0	n/a	n/a	1.0	2.965	Sem/Sem_run-02/stereo_2SH46A0.wav	1.0	1	2.715
