onset	duration	trial_type	correct	window1_response	window1_RT	window2_response	window2_RT	stim_file	calculated_response	calculated_accuracy	calculated_RT
1.1	6.895	G_F	2.0	n/a	n/a	2.0	2.8339999999999996	Gram/Gram_run-01/stereo_2MF57U2.wav	2.0	1	3.584
8.006	7.175	G_F	2.0	n/a	n/a	2.0	2.807	Gram/Gram_run-01/stereo_1MF15U3.wav	2.0	1	3.557
15.195	6.5070000000000014	G_G	1.0	n/a	n/a	1.0	3.509	Gram/Gram_run-01/stereo_1MF11G2.wav	1.0	1	2.3289999999999997
21.717	6.505	G_C	1.0	n/a	n/a	1.0	0.271	Gram/Gram_run-01/CoM09d.wav	1.0	1	1.021
28.221999999999998	6.9479999999999995	G_F	2.0	n/a	n/a	1.0	4.218999999999999	Gram/Gram_run-01/stereo_2MF68U4.wav	1.0	0	3.4929999999999986
35.178000000000004	5.541	G_P	2.0	n/a	n/a	2.0	3.778	Gram/Gram_run-01/stereo_1MP37U3.wav	2.0	1	2.743
40.732	5.9479999999999995	G_G	1.0	n/a	n/a	1.0	4.031000000000001	Gram/Gram_run-01/stereo_2MF50G1.wav	1.0	1	1.9360000000000017
46.687	6.013	G_F	2.0	n/a	n/a	2.0	3.41	Gram/Gram_run-01/stereo_1MF05U1.wav	2.0	1	2.8080000000000003
52.708999999999996	7.87	G_C	1.0	1.0	0.715	n/a	n/a	Gram/Gram_run-01/CoM01l.wav	1.0	1	0.715
60.582	6.4979999999999976	G_G	1.0	n/a	n/a	1.0	3.785	Gram/Gram_run-01/stereo_1MF23G4.wav	1.0	1	1.604
67.087	6.184	G_F	2.0	n/a	n/a	2.0	2.546	Gram/Gram_run-01/stereo_2MF55U2.wav	2.0	1	3.296
73.275	6.83	G_C	1.0	1.0	0.742	n/a	n/a	Gram/Gram_run-01/CoM10l.wav	1.0	1	0.742
80.11399999999998	7.505	G_G	1.0	n/a	n/a	1.0	4.35	Gram/Gram_run-01/stereo_2MP96G4.wav	1.0	1	1.955
87.62	7.1370000000000005	G_G	1.0	n/a	n/a	1.0	4.967	Gram/Gram_run-01/stereo_1MP47G4.wav	1.0	1	2.5
94.759	6.694	G_F	2.0	n/a	n/a	2.0	2.247	Gram/Gram_run-01/stereo_2MF61U3.wav	2.0	1	2.997
101.464	5.39	G_C	1.0	n/a	n/a	1.0	0.873	Gram/Gram_run-01/CoM01d.wav	1.0	1	1.623
106.869	6.5760000000000005	G_G	1.0	n/a	n/a	1.0	2.721	Gram/Gram_run-01/stereo_1MP35G2.wav	1.0	1	1.717
113.45700000000001	5.3389999999999995	G_F	2.0	n/a	n/a	1.0	4.008	Gram/Gram_run-01/stereo_2MF69U4.wav	1.0	0	3.2700000000000005
118.81200000000001	7.94	G_C	1.0	n/a	n/a	1.0	1.355	Gram/Gram_run-01/CoM08l.wav	1.0	1	2.105
126.76799999999999	6.006	G_P	2.0	n/a	n/a	2.0	4.05	Gram/Gram_run-01/stereo_1MP26U1.wav	2.0	1	2.074
132.79	8.422	G_F	2.0	n/a	n/a	2.0	4.145	Gram/Gram_run-01/stereo_1MF06U1.wav	2.0	1	3.549999999999999
141.213	7.885	G_P	2.0	n/a	n/a	2.0	3.112	Gram/Gram_run-01/stereo_2MP81U2.wav	2.0	1	2.227
149.10299999999995	6.127000000000002	G_G	1.0	n/a	n/a	1.0	2.9389999999999996	Gram/Gram_run-01/stereo_2MP83G2.wav	1.0	1	1.8790000000000002
155.241	5.765	G_C	1.0	n/a	n/a	1.0	1.112	Gram/Gram_run-01/CoM02b.wav	1.0	1	1.862
161.012	6.706	G_P	2.0	n/a	n/a	2.0	4.581	Gram/Gram_run-01/stereo_2MP93U4.wav	2.0	1	2.181000000000001
167.718	6.61	G_P	2.0	n/a	n/a	1.0	3.6860000000000004	Gram/Gram_run-01/stereo_1MP28U1.wav	1.0	0	1.5710000000000006
174.34	6.63	G_C	1.0	n/a	n/a	1.0	2.254	Gram/Gram_run-01/CoM04b.wav	1.0	1	3.004
180.97799999999998	5.665	G_P	2.0	n/a	n/a	2.0	3.987	Gram/Gram_run-01/stereo_1MP27U1.wav	2.0	1	1.9850000000000003
186.65	7.55	G_G	1.0	n/a	n/a	1.0	3.7710000000000004	Gram/Gram_run-01/stereo_2MP77G1.wav	1.0	1	1.6719999999999997
194.206	6.51	G_C	1.0	n/a	n/a	1.0	1.733	Gram/Gram_run-01/CoM03e.wav	1.0	1	2.483
200.72799999999998	6.98	G_P	2.0	n/a	n/a	2.0	4.088	Gram/Gram_run-01/stereo_2MP92U4.wav	2.0	1	1.7389999999999999
207.71599999999998	7.047999999999999	G_G	1.0	n/a	n/a	1.0	2.888	Gram/Gram_run-01/stereo_1MF12G2.wav	1.0	1	1.8539999999999999
214.77200000000002	5.574	G_F	2.0	n/a	n/a	1.0	4.226	Gram/Gram_run-01/stereo_1MF04U1.wav	1.0	0	3.638
220.36	5.67	G_C	1.0	n/a	n/a	1.0	2.884	Gram/Gram_run-01/CoM07d.wav	1.0	1	3.634
226.03099999999998	6.6160000000000005	G_P	2.0	n/a	n/a	2.0	2.74	Gram/Gram_run-01/stereo_1MP39U3.wav	2.0	1	1.7360000000000002
232.653	5.695	G_P	2.0	n/a	n/a	2.0	3.042	Gram/Gram_run-01/stereo_2MP82U2.wav	2.0	1	2.121
238.358	6.627000000000002	G_F	2.0	n/a	n/a	1.0	2.716	Gram/Gram_run-01/stereo_1MF13U3.wav	1.0	0	3.466
244.99599999999998	7.145	G_C	1.0	n/a	n/a	1.0	2.136	Gram/Gram_run-01/CoM08e.wav	1.0	1	2.886
252.15200000000002	6.805	G_G	1.0	n/a	n/a	1.0	3.668	Gram/Gram_run-01/stereo_1MP41G3.wav	1.0	1	2.362
258.95799999999997	7.519	G_P	2.0	n/a	n/a	2.0	3.105	Gram/Gram_run-01/stereo_1MP38U3.wav	2.0	1	1.8659999999999999
