onset	duration	trial_type	correct	window1_response	window1_RT	window2_response	window2_RT	stim_file	calculated_response	calculated_accuracy	calculated_RT
1.101	3.5	P_R	1.0	n/a	n/a	1.0	1.286	Phon/Phon_run-02/stereo_PR20.wav	1.0	1	1.036
4.603	4.235	P_O	1.0	n/a	n/a	1.0	1.865	Phon/Phon_run-02/PC034.wav	1.0	1	1.615
8.84	3.375	P_R	1.0	n/a	n/a	1.0	1.275	Phon/Phon_run-02/stereo_PR13.wav	1.0	1	1.025
12.225999999999999	3.474	P_C	1.0	n/a	n/a	1.0	0.826	Phon/Phon_run-02/ContS12.wav	1.0	1	1.576
15.712	3.875	P_U	2.0	n/a	n/a	2.0	1.609	Phon/Phon_run-02/PM025.wav	2.0	1	1.359
19.598	3.726	P_R	1.0	n/a	n/a	1.0	1.389	Phon/Phon_run-02/stereo_PR22.wav	1.0	1	1.139
23.334	3.451	P_O	1.0	n/a	n/a	1.0	1.93	Phon/Phon_run-02/PC014.wav	1.0	1	1.68
26.787	3.779	P_C	1.0	n/a	n/a	1.0	0.456	Phon/Phon_run-02/ContS02.wav	1.0	1	1.206
30.573	3.821	P_U	2.0	n/a	n/a	1.0	2.487	Phon/Phon_run-02/stereo_PU18.wav	1.0	0	2.237
34.409	3.49	P_U	2.0	n/a	n/a	1.0	1.4709999999999999	Phon/Phon_run-02/stereo_PU12.wav	1.0	0	1.221
37.912	4.38	P_C	1.0	n/a	n/a	1.0	0.48200000000000004	Phon/Phon_run-02/ContS32.wav	1.0	1	1.232
42.299	4.0969999999999995	P_R	1.0	n/a	n/a	1.0	1.406	Phon/Phon_run-02/stereo_PR16.wav	1.0	1	1.156
46.402	3.5	P_O	1.0	n/a	n/a	1.0	1.993	Phon/Phon_run-02/PC022.wav	1.0	1	1.743
49.905	4.0760000000000005	P_R	1.0	n/a	n/a	1.0	1.526	Phon/Phon_run-02/stereo_PR08.wav	1.0	1	1.276
53.99100000000001	3.5	P_O	1.0	n/a	n/a	1.0	2.251	Phon/Phon_run-02/PC028.wav	1.0	1	2.001
57.494	3.5	P_U	2.0	n/a	n/a	1.0	1.399	Phon/Phon_run-02/stereo_PU27.wav	1.0	0	1.149
60.996	3.819	P_C	1.0	n/a	n/a	1.0	0.32799999999999996	Phon/Phon_run-02/ContS06.wav	1.0	1	1.078
64.816	4.25	P_O	1.0	n/a	n/a	2.0	1.307	Phon/Phon_run-02/PC031.wav	2.0	0	1.057
69.069	3.662	P_C	1.0	n/a	n/a	1.0	1.776	Phon/Phon_run-02/ContS36.wav	1.0	1	2.526
72.73899999999998	3.823	P_O	1.0	n/a	n/a	1.0	2.0540000000000003	Phon/Phon_run-02/PC023.wav	1.0	1	1.8040000000000003
76.575	4.323	P_C	1.0	n/a	n/a	1.0	0.48700000000000004	Phon/Phon_run-02/ContS24.wav	1.0	1	1.237
80.91199999999998	3.865	P_U	2.0	n/a	n/a	2.0	1.239	Phon/Phon_run-02/PM004.wav	2.0	1	0.9890000000000001
84.781	3.875	P_O	1.0	n/a	n/a	1.0	1.281	Phon/Phon_run-02/PC007.wav	1.0	1	1.031
88.66799999999998	4.25	P_U	2.0	n/a	n/a	2.0	1.821	Phon/Phon_run-02/PM011.wav	2.0	1	1.571
92.921	4.362	P_C	1.0	n/a	n/a	1.0	0.841	Phon/Phon_run-02/ContS30.wav	1.0	1	1.591
97.291	3.875	P_O	1.0	n/a	n/a	2.0	1.949	Phon/Phon_run-02/PC030.wav	2.0	0	1.699
101.177	3.3360000000000003	P_R	1.0	n/a	n/a	1.0	1.245	Phon/Phon_run-02/stereo_PR05.wav	1.0	1	0.9950000000000001
104.51299999999999	4.113	P_U	2.0	n/a	n/a	2.0	1.604	Phon/Phon_run-02/stereo_PU01.wav	2.0	1	1.354
108.633	4.1739999999999995	P_U	2.0	n/a	n/a	2.0	1.514	Phon/Phon_run-02/PM029.wav	2.0	1	1.264
112.82	3.4539999999999997	P_C	1.0	n/a	n/a	1.0	1.704	Phon/Phon_run-02/ContS08.wav	1.0	1	2.4539999999999997
116.289	3.446	P_R	1.0	n/a	n/a	1.0	1.546	Phon/Phon_run-02/stereo_PR30.wav	1.0	1	1.296
119.742	3.85	P_R	1.0	n/a	n/a	1.0	1.072	Phon/Phon_run-02/stereo_PR07.wav	1.0	1	0.8220000000000001
123.595	3.438	P_U	2.0	n/a	n/a	2.0	1.746	Phon/Phon_run-02/stereo_PU02.wav	2.0	1	1.496
127.04700000000001	3.915	P_C	1.0	n/a	n/a	1.0	0.608	Phon/Phon_run-02/ContS20.wav	1.0	1	1.358
130.967	3.487	P_U	2.0	n/a	n/a	2.0	1.89	Phon/Phon_run-02/PM021.wav	2.0	1	1.64
134.47	3.965	P_C	1.0	n/a	n/a	n/a	n/a	Phon/Phon_run-02/ContS26.wav	n/a	0	n/a
138.439	3.792	P_R	1.0	n/a	n/a	1.0	1.6640000000000001	Phon/Phon_run-02/stereo_PR31.wav	1.0	1	1.414
142.24200000000005	4.135	P_O	1.0	n/a	n/a	1.0	2.109	Phon/Phon_run-02/PC024.wav	1.0	1	1.859
146.379	3.875	P_U	2.0	n/a	n/a	1.0	2.082	Phon/Phon_run-02/PM010.wav	1.0	0	1.8319999999999999
150.265	3.875	P_O	1.0	n/a	n/a	1.0	1.148	Phon/Phon_run-02/PC015.wav	1.0	1	0.8979999999999999
154.151	4.245	P_C	1.0	1.0	0.5670000000000001	n/a	n/a	Phon/Phon_run-02/ContS14.wav	1.0	1	0.5670000000000001
158.405	3.854	P_R	1.0	n/a	n/a	1.0	1.188	Phon/Phon_run-02/stereo_PR14.wav	1.0	1	0.938
162.274	4.239	P_O	1.0	n/a	n/a	1.0	1.646	Phon/Phon_run-02/PC008.wav	1.0	1	1.396
166.52700000000004	4.25	P_U	2.0	n/a	n/a	2.0	1.72	Phon/Phon_run-02/stereo_PU11.wav	2.0	1	1.47
170.78099999999995	3.523	P_C	1.0	n/a	n/a	1.0	0.92	Phon/Phon_run-02/ContS18.wav	1.0	1	1.67
174.317	3.429	P_O	1.0	n/a	n/a	1.0	1.548	Phon/Phon_run-02/PC006.wav	1.0	1	1.298
177.753	4.18	P_R	1.0	n/a	n/a	1.0	1.338	Phon/Phon_run-02/stereo_PR32.wav	1.0	1	1.088
181.93900000000002	4.104	P_R	1.0	n/a	n/a	1.0	2.28	Phon/Phon_run-02/stereo_PR24.wav	1.0	1	2.03
