onset	duration	trial_type	correct	window1_response	window1_RT	window2_response	window2_RT	stim_file	calculated_response	calculated_accuracy	calculated_RT
1.0964	7.034	SP_W	1.0	n/a	n/a	1.0	3.995	Plaus/Plaus_run-01/stereo_PW85.wav	1.0	1	1.8479999999999999
8.1359	5.641	SP_I	2.0	n/a	n/a	2.0	2.148	Plaus/Plaus_run-01/stereo_PI11.wav	2.0	1	1.228
13.79	6.77	SP_C	1.0	n/a	n/a	1.0	0.358	Plaus/Plaus_run-01/CoM08b.wav	1.0	1	1.108
20.5628	7.327000000000001	SP_W	1.0	n/a	n/a	1.0	3.491	Plaus/Plaus_run-01/stereo_PW72.wav	1.0	1	1.5110000000000001
27.9014	6.145	SP_C	1.0	n/a	n/a	1.0	0.506	Plaus/Plaus_run-01/CoM05d.wav	1.0	1	1.256
34.0559	5.181	SP_I	2.0	n/a	n/a	2.0	2.688	Plaus/Plaus_run-01/stereo_PI65.wav	2.0	1	1.746
39.243	5.092	SP_S	1.0	n/a	n/a	1.0	3.062	Plaus/Plaus_run-01/stereo_PC13.wav	1.0	1	1.9989999999999997
44.3468	7.355	SP_C	1.0	n/a	n/a	1.0	0.063	Plaus/Plaus_run-01/CoM06l.wav	1.0	1	0.813
51.7032	7.47	SP_I	2.0	n/a	n/a	2.0	3.742	Plaus/Plaus_run-01/stereo_PI90.wav	2.0	1	1.5710000000000002
59.1764	7.399	SP_S	1.0	n/a	n/a	1.0	3.45	Plaus/Plaus_run-01/stereo_PC35.wav	1.0	1	1.1830000000000003
66.5818	5.685	SP_S	1.0	n/a	n/a	1.0	2.906	Plaus/Plaus_run-01/stereo_PC47.wav	1.0	1	1.897
72.2704	5.669	SP_W	1.0	n/a	n/a	2.0	2.969	Plaus/Plaus_run-01/stereo_PW19.wav	2.0	0	1.9629999999999999
77.9423	7.9	SP_C	1.0	n/a	n/a	1.0	0.489	Plaus/Plaus_run-01/CoM03l.wav	1.0	1	1.2389999999999999
85.8483	5.145	SP_I	2.0	n/a	n/a	2.0	2.819	Plaus/Plaus_run-01/stereo_PI09.wav	2.0	1	1.8110000000000002
91.0021	6.9170000000000025	SP_W	1.0	n/a	n/a	1.0	3.9339999999999997	Plaus/Plaus_run-01/stereo_PW30.wav	1.0	1	1.814
97.9243	5.738	SP_S	1.0	n/a	n/a	1.0	2.452	Plaus/Plaus_run-01/stereo_PC14.wav	1.0	1	1.281
103.6662	6.276	SP_W	1.0	n/a	n/a	2.0	3.679	Plaus/Plaus_run-01/stereo_PW50.wav	2.0	0	2.8569999999999998
109.954	5.49	SP_C	1.0	1.0	0.635	n/a	n/a	Plaus/Plaus_run-01/CoM03d.wav	1.0	1	0.635
115.458	5.7	SP_I	2.0	n/a	n/a	n/a	n/a	Plaus/Plaus_run-01/stereo_PI67.wav	n/a	0	n/a
121.1625	7.237	SP_S	1.0	n/a	n/a	2.0	3.47	Plaus/Plaus_run-01/stereo_PC68.wav	2.0	0	1.504
128.4022	6.49	SP_C	1.0	n/a	n/a	1.0	1.172	Plaus/Plaus_run-01/CoM03b.wav	1.0	1	1.922
134.9065	6.25	SP_W	1.0	n/a	n/a	1.0	2.503	Plaus/Plaus_run-01/stereo_PW61.wav	1.0	1	1.5230000000000001
141.161	6.952999999999999	SP_I	2.0	n/a	n/a	2.0	3.662	Plaus/Plaus_run-01/stereo_PI32.wav	2.0	1	1.4969999999999999
148.1173	7.085	SP_C	1.0	n/a	n/a	1.0	0.545	Plaus/Plaus_run-01/CoM02e.wav	1.0	1	1.295
155.2068	6.3610000000000015	SP_S	1.0	n/a	n/a	n/a	n/a	Plaus/Plaus_run-01/stereo_PC24.wav	n/a	0	n/a
161.5781	5.1110000000000015	SP_W	1.0	n/a	n/a	1.0	2.787	Plaus/Plaus_run-01/stereo_PW53.wav	1.0	1	1.7730000000000001
166.6985	6.2860000000000005	SP_I	2.0	n/a	n/a	2.0	4.435	Plaus/Plaus_run-01/stereo_PI42.wav	2.0	1	2.239
172.9876	6.577000000000001	SP_S	1.0	n/a	n/a	1.0	2.6010000000000004	Plaus/Plaus_run-01/stereo_PC57.wav	1.0	1	1.4060000000000004
179.5757	5.273	SP_W	1.0	n/a	n/a	2.0	3.1180000000000003	Plaus/Plaus_run-01/stereo_PW18.wav	2.0	0	1.9510000000000003
184.8629	5.77	SP_C	1.0	1.0	0.722	1.0	3.222	Plaus/Plaus_run-01/CoM09b.wav	1.0	1	0.722
190.6348	6.731	SP_S	1.0	n/a	n/a	1.0	3.824	Plaus/Plaus_run-01/stereo_PC26.wav	1.0	1	1.7239999999999998
197.3731	7.212999999999999	SP_I	2.0	n/a	n/a	2.0	3.616	Plaus/Plaus_run-01/stereo_PI33.wav	2.0	1	1.633
204.595	5.181	SP_S	1.0	n/a	n/a	1.0	2.964	Plaus/Plaus_run-01/stereo_PC01.wav	1.0	1	2.023
209.7821	6.238	SP_S	1.0	n/a	n/a	n/a	n/a	Plaus/Plaus_run-01/stereo_PC36.wav	n/a	0	n/a
216.0211	7.73	SP_C	1.0	1.0	0.085	1.0	1.415	Plaus/Plaus_run-01/CoM10e.wav	1.0	1	0.085
223.7601	6.843	SP_I	2.0	n/a	n/a	1.0	3.995	Plaus/Plaus_run-01/stereo_PI45.wav	1.0	0	1.8680000000000003
230.615	6.101	SP_W	1.0	n/a	n/a	2.0	4.069	Plaus/Plaus_run-01/stereo_PW28.wav	2.0	0	2.1369999999999996
236.7206	7.419	SP_W	1.0	n/a	n/a	1.0	3.54	Plaus/Plaus_run-01/stereo_PW86.wav	1.0	1	1.5040000000000004
244.1438	6.54	SP_C	1.0	n/a	n/a	1.0	0.07	Plaus/Plaus_run-01/CoM05e.wav	1.0	1	0.8200000000000001
250.6981	6.247000000000001	SP_I	2.0	n/a	n/a	1.0	3.139	Plaus/Plaus_run-01/stereo_PI12.wav	1.0	0	2.268
