onset	duration	trial_type	correct	window1_response	window1_RT	window2_response	window2_RT	stim_file	calculated_response	calculated_accuracy	calculated_RT
1.084	6.343	SP_S	1.0	n/a	n/a	2.0	3.8810000000000002	Plaus/Plaus_run-02/stereo_PC37.wav	2.0	0	1.7199999999999993
7.439	6.345	SP_W	1.0	n/a	n/a	2.0	3.798	Plaus/Plaus_run-02/stereo_PW74.wav	2.0	0	1.829
13.793	6.095	SP_C	1.0	n/a	n/a	1.0	0.76	Plaus/Plaus_run-02/CoM10d.wav	1.0	1	1.51
19.898	6.401	SP_I	2.0	n/a	n/a	1.0	2.739	Plaus/Plaus_run-02/stereo_PI56.wav	1.0	0	1.872
26.303	6.407	SP_W	1.0	n/a	n/a	1.0	4.192	Plaus/Plaus_run-02/stereo_PW39.wav	1.0	1	2.165
32.724000000000004	6.8420000000000005	SP_I	2.0	n/a	n/a	2.0	4.293	Plaus/Plaus_run-02/stereo_PI44.wav	2.0	1	2.096
39.58	7.7	SP_C	1.0	n/a	n/a	1.0	0.348	Plaus/Plaus_run-02/CoM07e.wav	1.0	1	1.098
47.286	5.756	SP_S	1.0	n/a	n/a	1.0	2.592	Plaus/Plaus_run-02/stereo_PC03.wav	1.0	1	1.6500000000000004
53.056999999999995	7.372000000000001	SP_S	1.0	n/a	n/a	1.0	4.586	Plaus/Plaus_run-02/stereo_PC82.wav	1.0	1	2.531
60.428999999999995	6.095	SP_C	1.0	n/a	n/a	1.0	2.521	Plaus/Plaus_run-02/CoM04d.wav	1.0	1	3.2710000000000004
66.533	6.303	SP_I	2.0	n/a	n/a	2.0	2.9130000000000003	Plaus/Plaus_run-02/stereo_PI23.wav	2.0	1	1.929
72.83800000000002	5.655	SP_I	2.0	n/a	n/a	1.0	2.2840000000000003	Plaus/Plaus_run-02/stereo_PI22.wav	1.0	0	1.3650000000000002
78.492	6.85	SP_C	1.0	n/a	n/a	1.0	3.105	Plaus/Plaus_run-02/CoM08d.wav	1.0	1	3.855
85.348	6.9179999999999975	SP_S	1.0	n/a	n/a	1.0	3.904	Plaus/Plaus_run-02/stereo_PC79.wav	1.0	1	1.6580000000000004
92.27	5.233	SP_I	2.0	n/a	n/a	1.0	2.396	Plaus/Plaus_run-02/stereo_PI21.wav	1.0	0	1.3559999999999999
97.507	6.385	SP_S	1.0	n/a	n/a	1.0	2.775	Plaus/Plaus_run-02/stereo_PC46.wav	1.0	1	1.8130000000000002
103.895	6.282	SP_W	1.0	n/a	n/a	2.0	2.833	Plaus/Plaus_run-02/stereo_PW64.wav	2.0	0	1.7270000000000003
110.18299999999999	7.69	SP_C	1.0	n/a	n/a	1.0	0.168	Plaus/Plaus_run-02/CoM04e.wav	1.0	1	0.9179999999999999
117.889	6.316	SP_I	2.0	n/a	n/a	2.0	4.087	Plaus/Plaus_run-02/stereo_PI34.wav	2.0	1	1.93
124.211	5.47	SP_C	1.0	n/a	n/a	1.0	2.508	Plaus/Plaus_run-02/CoM10b.wav	1.0	1	3.258
129.681	5.636	SP_I	2.0	n/a	n/a	1.0	2.542	Plaus/Plaus_run-02/stereo_PI55.wav	1.0	0	1.7029999999999996
135.319	7.461	SP_W	1.0	n/a	n/a	1.0	3.339	Plaus/Plaus_run-02/stereo_PW83.wav	1.0	1	1.3350000000000004
142.791	5.48	SP_C	1.0	n/a	n/a	1.0	0.643	Plaus/Plaus_run-02/CoM01b.wav	1.0	1	1.393
148.279	6.2120000000000015	SP_W	1.0	n/a	n/a	2.0	2.6039999999999996	Plaus/Plaus_run-02/stereo_PW08.wav	2.0	0	1.743
154.5	4.694	SP_W	1.0	n/a	n/a	1.0	2.559	Plaus/Plaus_run-02/stereo_PW07.wav	1.0	1	1.6840000000000002
159.204	6.197	SP_I	2.0	n/a	n/a	2.0	3.4810000000000003	Plaus/Plaus_run-02/stereo_PI43.wav	2.0	1	1.4210000000000007
165.408	6.1979999999999995	SP_S	1.0	n/a	n/a	1.0	2.135	Plaus/Plaus_run-02/stereo_PC59.wav	1.0	1	1.1340000000000001
171.613	7.345	SP_C	1.0	n/a	n/a	1.0	1.466	Plaus/Plaus_run-02/CoM05l.wav	1.0	1	2.2159999999999997
178.96900000000005	5.2429999999999986	SP_S	1.0	n/a	n/a	1.0	2.627	Plaus/Plaus_run-02/stereo_PC02.wav	1.0	1	1.7479999999999998
184.22299999999998	6.82	SP_C	1.0	n/a	n/a	1.0	1.518	Plaus/Plaus_run-02/CoM09l.wav	1.0	1	2.2680000000000002
191.045	7.183	SP_I	2.0	n/a	n/a	2.0	3.4	Plaus/Plaus_run-02/stereo_PI78.wav	2.0	1	1.4819999999999998
198.233	6.727	SP_W	1.0	n/a	n/a	1.0	3.904	Plaus/Plaus_run-02/stereo_PW40.wav	1.0	1	1.6709999999999998
204.972	5.181	SP_S	1.0	n/a	n/a	1.0	3.1310000000000002	Plaus/Plaus_run-02/stereo_PC60.wav	1.0	1	1.841
210.15900000000002	7.135	SP_W	1.0	n/a	n/a	1.0	3.637	Plaus/Plaus_run-02/stereo_PW73.wav	1.0	1	1.7049999999999996
217.298	6.76	SP_C	1.0	n/a	n/a	1.0	0.195	Plaus/Plaus_run-02/CoM04l.wav	1.0	1	0.945
224.07	6.682	SP_I	2.0	n/a	n/a	2.0	3.514	Plaus/Plaus_run-02/stereo_PI75.wav	2.0	1	1.5179999999999998
230.75799999999998	6.002999999999999	SP_W	1.0	n/a	n/a	1.0	2.6510000000000002	Plaus/Plaus_run-02/stereo_PW63.wav	1.0	1	1.5039999999999998
236.763	5.0760000000000005	SP_W	1.0	n/a	n/a	1.0	2.5069999999999997	Plaus/Plaus_run-02/stereo_PW05.wav	1.0	1	1.729
241.85	6.218	SP_S	1.0	n/a	n/a	1.0	3.432	Plaus/Plaus_run-02/stereo_PC69.wav	1.0	1	1.1950000000000005
248.071	6.569	SP_S	1.0	n/a	n/a	1.0	3.498	Plaus/Plaus_run-02/stereo_PC70.wav	1.0	1	1.6220000000000003
