onset	duration	trial_type	correct	window1_response	window1_RT	window2_response	window2_RT	stim_file	calculated_response	calculated_accuracy	calculated_RT
1.084	4.2010000000000005	S_U	2.0	n/a	n/a	2.0	1.882	Sem/Sem_run-02/stereo_1SU33A0.wav	2.0	1	1.632
5.287000000000001	3.486	S_U	2.0	n/a	n/a	2.0	1.4869999999999999	Sem/Sem_run-02/stereo_2SU85A0.wav	2.0	1	1.237
8.773	3.8539999999999996	S_H	1.0	n/a	n/a	1.0	1.104	Sem/Sem_run-02/stereo_2SH50A0.wav	1.0	1	0.8540000000000001
12.643	3.454	S_C	1.0	n/a	n/a	1.0	0.203	Sem/Sem_run-02/ContS08.wav	1.0	1	0.9530000000000001
16.112000000000002	4.33	S_H	1.0	n/a	n/a	1.0	1.626	Sem/Sem_run-02/stereo_1SH10A0.wav	1.0	1	1.376
20.449	3.872	S_L	1.0	n/a	n/a	2.0	1.48	Sem/Sem_run-02/stereo_2SL61A0.wav	2.0	0	1.23
24.335	3.885	S_L	1.0	n/a	n/a	1.0	1.966	Sem/Sem_run-02/stereo_1SL23A0.wav	1.0	1	1.716
28.222	4.2	S_U	2.0	n/a	n/a	2.0	1.177	Sem/Sem_run-02/stereo_1SU42A0.wav	2.0	1	0.927
32.425	3.321	S_L	1.0	n/a	n/a	1.0	2.097	Sem/Sem_run-02/stereo_1SL16A0.wav	1.0	1	1.847
35.761	3.59	S_C	1.0	n/a	n/a	1.0	0.145	Sem/Sem_run-02/ContS26.wav	1.0	1	0.895
39.363	4.4	S_H	1.0	n/a	n/a	1.0	1.7819999999999998	Sem/Sem_run-02/stereo_2SH60A0.wav	1.0	1	1.5319999999999998
43.767	4.311	S_L	1.0	n/a	n/a	2.0	1.34	Sem/Sem_run-02/stereo_2SL75A0.wav	2.0	0	1.09
48.087	3.912	S_H	1.0	n/a	n/a	1.0	2.472	Sem/Sem_run-02/stereo_2SH59A0.wav	1.0	1	2.222
52.006	4.4	S_U	2.0	n/a	n/a	2.0	1.3769999999999998	Sem/Sem_run-02/stereo_2SU84A0.wav	2.0	1	1.1269999999999998
56.41	3.4210000000000003	S_U	2.0	n/a	n/a	2.0	1.4	Sem/Sem_run-02/stereo_1SU43A0.wav	2.0	1	1.15
59.846	3.8539999999999996	S_C	1.0	n/a	n/a	1.0	0.087	Sem/Sem_run-02/ContS02.wav	1.0	1	0.837
63.715	4.37	S_L	1.0	n/a	n/a	1.0	2.162	Sem/Sem_run-02/stereo_1SL19A0.wav	1.0	1	1.912
68.085	3.862	S_L	1.0	n/a	n/a	1.0	1.146	Sem/Sem_run-02/stereo_1SL18A0.wav	1.0	1	0.8959999999999999
71.955	4.462	S_C	1.0	n/a	n/a	1.0	0.011000000000000001	Sem/Sem_run-02/ContS22.wav	1.0	1	0.761
76.425	3.406	S_L	1.0	n/a	n/a	1.0	1.16	Sem/Sem_run-02/stereo_1SL21A0.wav	1.0	1	0.9099999999999999
79.844	3.355	S_U	2.0	n/a	n/a	2.0	1.2329999999999999	Sem/Sem_run-02/stereo_1SU36A0.wav	2.0	1	0.9830000000000001
83.214	4.324	S_C	1.0	n/a	n/a	1.0	0.321	Sem/Sem_run-02/ContS04.wav	1.0	1	1.071
87.55	4.253	S_L	1.0	n/a	n/a	1.0	1.3730000000000002	Sem/Sem_run-02/stereo_1SL24A0.wav	1.0	1	1.1230000000000002
91.803	3.839	S_L	1.0	n/a	n/a	1.0	1.5630000000000002	Sem/Sem_run-02/stereo_2SL70A0.wav	1.0	1	1.3130000000000002
95.656	4.395	S_C	1.0	n/a	n/a	1.0	0.38799999999999996	Sem/Sem_run-02/ContS14.wav	1.0	1	1.138
100.06	3.8739999999999997	S_H	1.0	n/a	n/a	n/a	n/a	Sem/Sem_run-02/stereo_1SH09A0.wav	n/a	0	n/a
103.946	3.75	S_U	2.0	n/a	n/a	2.0	1.774	Sem/Sem_run-02/stereo_1SU32A0.wav	2.0	1	1.524
107.699	3.641	S_C	1.0	n/a	n/a	1.0	0.314	Sem/Sem_run-02/ContS34.wav	1.0	1	1.064
111.352	3.338	S_U	2.0	n/a	n/a	2.0	1.155	Sem/Sem_run-02/stereo_1SU31A0.wav	2.0	1	0.905
114.704	3.45	S_L	1.0	n/a	n/a	2.0	2.117	Sem/Sem_run-02/stereo_2SL68A0.wav	2.0	0	1.867
118.157	3.8510000000000004	S_H	1.0	n/a	n/a	1.0	0.922	Sem/Sem_run-02/stereo_1SH14A0.wav	1.0	1	0.672
122.01	3.459	S_H	1.0	n/a	n/a	1.0	1.3730000000000002	Sem/Sem_run-02/stereo_1SH01A0.wav	1.0	1	1.1230000000000002
125.479	3.512	S_C	1.0	n/a	n/a	1.0	1.129	Sem/Sem_run-02/ContS16.wav	1.0	1	1.879
128.999	3.489	S_H	1.0	n/a	n/a	1.0	1.571	Sem/Sem_run-02/stereo_1SH12A0.wav	1.0	1	1.321
132.501	3.8489999999999998	S_U	2.0	n/a	n/a	2.0	1.158	Sem/Sem_run-02/stereo_2SU86A0.wav	2.0	1	0.9079999999999999
136.35399999999998	3.46	S_L	1.0	n/a	n/a	1.0	1.5119999999999998	Sem/Sem_run-02/stereo_1SL28A0.wav	1.0	1	1.2619999999999998
139.82299999999998	4.53	S_C	1.0	n/a	n/a	1.0	0.168	Sem/Sem_run-02/ContS32.wav	1.0	1	0.918
144.36	4.351	S_H	1.0	n/a	n/a	1.0	1.692	Sem/Sem_run-02/stereo_2SH52A0.wav	1.0	1	1.442
148.714	3.48	S_H	1.0	n/a	n/a	n/a	n/a	Sem/Sem_run-02/stereo_2SH47A0.wav	n/a	0	n/a
152.2	3.3	S_H	1.0	n/a	n/a	1.0	1.224	Sem/Sem_run-02/stereo_2SH53A0.wav	1.0	1	0.974
155.502	3.847	S_U	2.0	n/a	n/a	2.0	1.65	Sem/Sem_run-02/stereo_1SU39A0.wav	2.0	1	1.4
159.355	3.923	S_C	1.0	n/a	n/a	1.0	0.579	Sem/Sem_run-02/ContS10.wav	1.0	1	1.329
163.291	3.7510000000000003	S_U	2.0	n/a	n/a	2.0	2.266	Sem/Sem_run-02/stereo_2SU80A0.wav	2.0	1	2.016
167.044	4.2	S_L	1.0	n/a	n/a	1.0	2.352	Sem/Sem_run-02/stereo_2SL66A0.wav	1.0	1	2.102
171.247	3.99	S_C	1.0	n/a	n/a	1.0	0.799	Sem/Sem_run-02/ContS20.wav	1.0	1	1.549
175.25099999999995	4.041	S_C	1.0	n/a	n/a	1.0	0.8740000000000001	Sem/Sem_run-02/ContS28.wav	1.0	1	1.624
179.304	4.2	S_U	2.0	n/a	n/a	2.0	1.136	Sem/Sem_run-02/stereo_2SU89A0.wav	2.0	1	0.8859999999999999
183.507	4.368	S_H	1.0	n/a	n/a	1.0	1.8769999999999998	Sem/Sem_run-02/stereo_2SH46A0.wav	1.0	1	1.627
