onset	duration	trial_type	correct	window1_response	window1_RT	window2_response	window2_RT	stim_file	calculated_response	calculated_accuracy	calculated_RT
1.0934	7.632999999999999	G_P	2.0	n/a	n/a	2.0	3.851	Gram/Gram_run-02/stereo_1MP45U4.wav	2.0	1	1.7199999999999998
8.7323	7.315	G_F	2.0	n/a	n/a	2.0	5.692	Gram/Gram_run-02/stereo_1MF20U4.wav	2.0	1	4.981999999999999
16.0543	6.2829999999999995	G_P	2.0	n/a	n/a	2.0	3.3339999999999996	Gram/Gram_run-02/stereo_1MP34U2.wav	2.0	1	2.2419999999999995
22.3421	6.195	G_C	1.0	1.0	0.513	1.0	1.325	Gram/Gram_run-02/CoM06d.wav	1.0	1	0.513
28.5465	6.221	G_G	1.0	n/a	n/a	1.0	4.114	Gram/Gram_run-02/stereo_1MF02G1.wav	1.0	1	2.074
34.769	5.801	G_F	2.0	n/a	n/a	2.0	2.9530000000000003	Gram/Gram_run-02/stereo_2MF64U3.wav	2.0	1	3.7030000000000003
40.5743	6.78	G_C	1.0	n/a	n/a	1.0	0.022	Gram/Gram_run-02/CoM07l.wav	1.0	1	0.772
47.3625	6.084	G_F	2.0	n/a	n/a	2.0	3.682	Gram/Gram_run-02/stereo_2MF56U2.wav	2.0	1	4.432
53.4512	7.5470000000000015	G_F	2.0	n/a	n/a	2.0	4.3919999999999995	Gram/Gram_run-02/stereo_1MF21U4.wav	2.0	1	3.640999999999999
61.0065	6.482	G_G	1.0	n/a	n/a	1.0	4.394	Gram/Gram_run-02/stereo_1MF24G4.wav	1.0	1	2.0330000000000004
67.4946	6.7810000000000015	G_P	2.0	n/a	n/a	2.0	4.3039999999999985	Gram/Gram_run-02/stereo_2MP76U1.wav	2.0	1	2.041999999999999
74.2828	6.643	G_P	2.0	n/a	n/a	2.0	3.207	Gram/Gram_run-02/stereo_2MP80U2.wav	2.0	1	2.251
80.9376	7.69	G_C	1.0	1.0	0.35700000000000004	1.0	0.85	Gram/Gram_run-02/CoM06e.wav	1.0	1	0.35700000000000004
88.639	6.352	G_F	2.0	n/a	n/a	2.0	2.472	Gram/Gram_run-02/stereo_2MF63U3.wav	2.0	1	3.222
94.9947	5.801	G_G	1.0	n/a	n/a	1.0	3.23	Gram/Gram_run-02/stereo_1MF18G3.wav	1.0	1	1.847
100.8001	7.1129999999999995	G_P	2.0	n/a	n/a	2.0	4.256	Gram/Gram_run-02/stereo_1MP44U4.wav	2.0	1	1.899
107.9218	6.78	G_C	1.0	1.0	0.693	1.0	1.111	Gram/Gram_run-02/CoM05b.wav	1.0	1	0.693
114.7101	6.7360000000000015	G_F	2.0	n/a	n/a	2.0	3.525	Gram/Gram_run-02/stereo_2MF58U2.wav	2.0	1	4.275
121.4494	6.0889999999999995	G_P	2.0	n/a	n/a	2.0	3.4330000000000003	Gram/Gram_run-02/stereo_2MP87U3.wav	2.0	1	2.221
127.5529	7.6370000000000005	G_P	2.0	n/a	n/a	2.0	4.1	Gram/Gram_run-02/stereo_2MP73U1.wav	2.0	1	2.0729999999999995
135.1929	7.305	G_C	1.0	1.0	0.467	1.0	0.847	Gram/Gram_run-02/CoM02l.wav	1.0	1	0.467
142.4994	5.983	G_G	1.0	n/a	n/a	1.0	4.555	Gram/Gram_run-02/stereo_1MP42G3.wav	1.0	1	3.6329999999999996
148.4871	5.36	G_P	2.0	n/a	n/a	2.0	3.036	Gram/Gram_run-02/stereo_1MP32U2.wav	2.0	1	2.03
153.8576	7.145	G_C	1.0	n/a	n/a	1.0	0.123	Gram/Gram_run-02/CoM09e.wav	1.0	1	0.873
161.0128	6.28	G_F	2.0	n/a	n/a	2.0	4.052	Gram/Gram_run-02/stereo_1MF19U4.wav	2.0	1	3.3659999999999997
167.3005	6.63	G_C	1.0	n/a	n/a	1.0	0.126	Gram/Gram_run-02/CoM07b.wav	1.0	1	0.876
173.9386	7.195	G_G	1.0	n/a	n/a	1.0	4.567	Gram/Gram_run-02/stereo_2MP89G3.wav	1.0	1	3.229
181.1437	5.1739999999999995	G_F	2.0	n/a	n/a	2.0	1.925	Gram/Gram_run-02/stereo_1MF07U2.wav	2.0	1	2.675
186.3308	6.944	G_P	2.0	n/a	n/a	2.0	3.968	Gram/Gram_run-02/stereo_2MP88U3.wav	2.0	1	2.925
193.2858	6.0889999999999995	G_G	1.0	n/a	n/a	1.0	2.758	Gram/Gram_run-02/stereo_2MF66G3.wav	1.0	1	1.3840000000000003
199.3896	6.5	G_C	1.0	1.0	0.674	1.0	0.675	Gram/Gram_run-02/CoM01e.wav	1.0	1	0.674
205.8946	6.43	G_P	2.0	n/a	n/a	2.0	4.069	Gram/Gram_run-02/stereo_1MP43U4.wav	2.0	1	1.787
212.3325	6.19	G_G	1.0	n/a	n/a	1.0	2.945	Gram/Gram_run-02/stereo_2MP84G2.wav	1.0	1	2.013
218.537	7.114	G_G	1.0	n/a	n/a	1.0	3.913	Gram/Gram_run-02/stereo_1MP29G1.wav	1.0	1	1.7249999999999996
225.6587	6.731	G_F	2.0	n/a	n/a	2.0	4.678	Gram/Gram_run-02/stereo_2MF53U1.wav	2.0	1	4.106999999999999
232.3969	6.015	G_C	1.0	1.0	0.597	1.0	1.294	Gram/Gram_run-02/CoM02d.wav	1.0	1	0.597
238.4179	7.17	G_G	1.0	n/a	n/a	1.0	4.173	Gram/Gram_run-02/stereo_2MF71G4.wav	1.0	1	1.9239999999999995
245.5909	5.33	G_C	1.0	n/a	n/a	1.0	0.094	Gram/Gram_run-02/CoM06b.wav	1.0	1	0.844
250.9316	6.9689999999999985	G_F	2.0	n/a	n/a	2.0	4.1389999999999985	Gram/Gram_run-02/stereo_2MF54U1.wav	2.0	1	3.5689999999999986
257.9045	7.6	G_G	1.0	n/a	n/a	1.0	4.1560000000000015	Gram/Gram_run-02/stereo_2MF49G1.wav	1.0	1	1.9670000000000014
