onset	duration	trial_type	correct	window1_response	window1_RT	window2_response	window2_RT	stim_file	calculated_response	calculated_accuracy	calculated_RT
1.101	7.034	SP_W	1.0	n/a	n/a	n/a	n/a	Plaus/Plaus_run-01/stereo_PW85.wav	n/a	0	n/a
8.14	5.641	SP_I	2.0	n/a	n/a	n/a	n/a	Plaus/Plaus_run-01/stereo_PI11.wav	n/a	0	n/a
13.794	6.77	SP_C	1.0	n/a	n/a	1.0	0.341	Plaus/Plaus_run-01/CoM08b.wav	1.0	1	1.091
20.566	7.327000000000001	SP_W	1.0	n/a	n/a	n/a	n/a	Plaus/Plaus_run-01/stereo_PW72.wav	n/a	0	n/a
27.905	6.145	SP_C	1.0	1.0	0.249	1.0	0.6890000000000001	Plaus/Plaus_run-01/CoM05d.wav	1.0	1	0.249
34.059	5.181	SP_I	2.0	n/a	n/a	n/a	n/a	Plaus/Plaus_run-01/stereo_PI65.wav	n/a	0	n/a
39.247	5.092	SP_S	1.0	n/a	n/a	n/a	n/a	Plaus/Plaus_run-01/stereo_PC13.wav	n/a	0	n/a
44.351000000000006	7.355	SP_C	1.0	n/a	n/a	1.0	0.078	Plaus/Plaus_run-01/CoM06l.wav	1.0	1	0.828
51.706	7.47	SP_I	2.0	n/a	n/a	n/a	n/a	Plaus/Plaus_run-01/stereo_PI90.wav	1.0	0	5.31
59.179	7.399	SP_S	1.0	n/a	n/a	1.0	0.011000000000000001	Plaus/Plaus_run-01/stereo_PC35.wav	1.0	1	5.455
66.584	5.685	SP_S	1.0	n/a	n/a	1.0	0.32299999999999995	Plaus/Plaus_run-01/stereo_PC47.wav	n/a	0	n/a
72.27199999999998	5.669	SP_W	1.0	n/a	n/a	n/a	n/a	Plaus/Plaus_run-01/stereo_PW19.wav	n/a	0	n/a
77.943	7.9	SP_C	1.0	n/a	n/a	n/a	n/a	Plaus/Plaus_run-01/CoM03l.wav	n/a	0	n/a
85.84899999999998	5.145	SP_I	2.0	n/a	n/a	n/a	n/a	Plaus/Plaus_run-01/stereo_PI09.wav	n/a	0	n/a
91.003	6.9170000000000025	SP_W	1.0	n/a	n/a	n/a	n/a	Plaus/Plaus_run-01/stereo_PW30.wav	n/a	0	n/a
97.925	5.738	SP_S	1.0	n/a	n/a	n/a	n/a	Plaus/Plaus_run-01/stereo_PC14.wav	n/a	0	n/a
103.663	6.276	SP_W	1.0	n/a	n/a	n/a	n/a	Plaus/Plaus_run-01/stereo_PW50.wav	n/a	0	n/a
109.951	5.49	SP_C	1.0	n/a	n/a	n/a	n/a	Plaus/Plaus_run-01/CoM03d.wav	n/a	0	n/a
115.455	5.7	SP_I	2.0	n/a	n/a	n/a	n/a	Plaus/Plaus_run-01/stereo_PI67.wav	n/a	0	n/a
121.159	7.237	SP_S	1.0	n/a	n/a	n/a	n/a	Plaus/Plaus_run-01/stereo_PC68.wav	n/a	0	n/a
128.398	6.49	SP_C	1.0	n/a	n/a	n/a	n/a	Plaus/Plaus_run-01/CoM03b.wav	n/a	0	n/a
134.903	6.25	SP_W	1.0	n/a	n/a	n/a	n/a	Plaus/Plaus_run-01/stereo_PW61.wav	n/a	0	n/a
141.158	6.952999999999999	SP_I	2.0	n/a	n/a	n/a	n/a	Plaus/Plaus_run-01/stereo_PI32.wav	n/a	0	n/a
148.113	7.085	SP_C	1.0	n/a	n/a	n/a	n/a	Plaus/Plaus_run-01/CoM02e.wav	n/a	0	n/a
155.202	6.3610000000000015	SP_S	1.0	n/a	n/a	n/a	n/a	Plaus/Plaus_run-01/stereo_PC24.wav	n/a	0	n/a
161.57299999999995	5.1110000000000015	SP_W	1.0	n/a	n/a	n/a	n/a	Plaus/Plaus_run-01/stereo_PW53.wav	n/a	0	n/a
166.69400000000005	6.2860000000000005	SP_I	2.0	n/a	n/a	n/a	n/a	Plaus/Plaus_run-01/stereo_PI42.wav	n/a	0	n/a
172.982	6.577000000000001	SP_S	1.0	n/a	n/a	n/a	n/a	Plaus/Plaus_run-01/stereo_PC57.wav	n/a	0	n/a
179.571	5.273	SP_W	1.0	n/a	n/a	n/a	n/a	Plaus/Plaus_run-01/stereo_PW18.wav	n/a	0	n/a
184.858	5.77	SP_C	1.0	n/a	n/a	n/a	n/a	Plaus/Plaus_run-01/CoM09b.wav	n/a	0	n/a
190.629	6.731	SP_S	1.0	n/a	n/a	n/a	n/a	Plaus/Plaus_run-01/stereo_PC26.wav	n/a	0	n/a
197.368	7.212999999999999	SP_I	2.0	n/a	n/a	n/a	n/a	Plaus/Plaus_run-01/stereo_PI33.wav	n/a	0	n/a
204.59	5.181	SP_S	1.0	n/a	n/a	n/a	n/a	Plaus/Plaus_run-01/stereo_PC01.wav	n/a	0	n/a
209.777	6.238	SP_S	1.0	n/a	n/a	n/a	n/a	Plaus/Plaus_run-01/stereo_PC36.wav	n/a	0	n/a
216.015	7.73	SP_C	1.0	n/a	n/a	n/a	n/a	Plaus/Plaus_run-01/CoM10e.wav	n/a	0	n/a
223.754	6.843	SP_I	2.0	n/a	n/a	n/a	n/a	Plaus/Plaus_run-01/stereo_PI45.wav	n/a	0	n/a
230.61	6.101	SP_W	1.0	n/a	n/a	n/a	n/a	Plaus/Plaus_run-01/stereo_PW28.wav	n/a	0	n/a
236.71400000000003	7.419	SP_W	1.0	n/a	n/a	n/a	n/a	Plaus/Plaus_run-01/stereo_PW86.wav	n/a	0	n/a
244.137	6.54	SP_C	1.0	n/a	n/a	n/a	n/a	Plaus/Plaus_run-01/CoM05e.wav	n/a	0	n/a
250.692	6.247000000000001	SP_I	2.0	n/a	n/a	n/a	n/a	Plaus/Plaus_run-01/stereo_PI12.wav	n/a	0	n/a
