onset	duration	trial_type	correct	window1_response	window1_RT	window2_response	window2_RT	stim_file	calculated_response	calculated_accuracy	calculated_RT
1.084	4.2	S_U	2.0	n/a	n/a	2.0	1.2690000000000001	Sem/Sem_run-01/stereo_1SU41A0.wav	2.0	1	1.019
5.287000000000001	3.596	S_C	1.0	n/a	n/a	1.0	0.586	Sem/Sem_run-01/ContS29.wav	1.0	1	1.3359999999999999
8.89	3.425	S_U	2.0	n/a	n/a	2.0	1.456	Sem/Sem_run-01/stereo_2SU87A0.wav	2.0	1	1.206
12.325999999999999	3.933	S_H	1.0	n/a	n/a	1.0	1.699	Sem/Sem_run-01/stereo_1SH13A0.wav	1.0	1	1.449
16.262	4.323	S_H	1.0	n/a	n/a	2.0	1.389	Sem/Sem_run-01/stereo_1SH05A0.wav	2.0	0	1.139
20.599	4.073	S_C	1.0	n/a	n/a	1.0	0.20600000000000002	Sem/Sem_run-01/ContS31.wav	1.0	1	0.956
24.685	3.869	S_L	1.0	n/a	n/a	n/a	n/a	Sem/Sem_run-01/stereo_2SL63A0.wav	1.0	1	2.875
28.555	3.75	S_L	1.0	1.0	0.006	1.0	1.611	Sem/Sem_run-01/stereo_1SL29A0.wav	1.0	1	1.361
32.308	4.3660000000000005	S_U	2.0	n/a	n/a	2.0	2.043	Sem/Sem_run-01/stereo_2SU78A0.wav	2.0	1	1.7930000000000001
36.678000000000004	3.3	S_L	1.0	n/a	n/a	1.0	1.423	Sem/Sem_run-01/stereo_1SL17A0.wav	1.0	1	1.173
39.98	3.884	S_C	1.0	n/a	n/a	1.0	1.0170000000000001	Sem/Sem_run-01/ContS05.wav	1.0	1	1.767
43.86600000000001	4.371	S_H	1.0	n/a	n/a	1.0	1.649	Sem/Sem_run-01/stereo_2SH58A0.wav	1.0	1	1.399
48.253	4.329	S_L	1.0	n/a	n/a	1.0	1.7480000000000002	Sem/Sem_run-01/stereo_2SL72A0.wav	1.0	1	1.4980000000000002
52.59	3.94	S_H	1.0	n/a	n/a	1.0	2.529	Sem/Sem_run-01/stereo_2SH57A0.wav	1.0	1	2.279
56.543	4.2	S_U	2.0	n/a	n/a	1.0	1.5630000000000002	Sem/Sem_run-01/stereo_2SU83A0.wav	1.0	0	1.3130000000000002
60.746	3.474	S_C	1.0	n/a	n/a	1.0	0.9390000000000001	Sem/Sem_run-01/ContS11.wav	1.0	1	1.689
64.232	4.271	S_L	1.0	n/a	n/a	1.0	2.029	Sem/Sem_run-01/stereo_1SL26A0.wav	1.0	1	1.779
68.51899999999999	3.91	S_L	1.0	n/a	n/a	1.0	1.249	Sem/Sem_run-01/stereo_1SL25A0.wav	1.0	1	0.9990000000000001
72.438	4.479	S_C	1.0	1.0	0.603	1.0	0.052000000000000005	Sem/Sem_run-01/ContS25.wav	1.0	1	0.603
76.925	3.378	S_U	2.0	n/a	n/a	1.0	2.037	Sem/Sem_run-01/stereo_2SU81A0.wav	1.0	0	1.787
80.311	3.42	S_L	1.0	n/a	n/a	1.0	1.413	Sem/Sem_run-01/stereo_1SL27A0.wav	1.0	1	1.163
83.74700000000001	4.3439999999999985	S_L	1.0	n/a	n/a	1.0	1.541	Sem/Sem_run-01/stereo_1SL30A0.wav	1.0	1	1.291
88.1	3.909	S_L	1.0	n/a	n/a	1.0	1.235	Sem/Sem_run-01/stereo_2SL71A0.wav	1.0	1	0.9850000000000001
92.02	3.867	S_H	1.0	n/a	n/a	1.0	1.645	Sem/Sem_run-01/stereo_1SH04A0.wav	1.0	1	1.395
95.89	3.828	S_U	2.0	n/a	n/a	2.0	1.5590000000000002	Sem/Sem_run-01/stereo_1SU37A0.wav	2.0	1	1.3090000000000002
99.726	4.565	S_C	1.0	1.0	0.703	1.0	0.21899999999999997	Sem/Sem_run-01/ContS35.wav	1.0	1	0.703
104.296	3.3	S_U	2.0	n/a	n/a	2.0	1.5759999999999998	Sem/Sem_run-01/stereo_1SU35A0.wav	2.0	1	1.3259999999999998
107.598	3.477	S_L	1.0	n/a	n/a	1.0	1.73	Sem/Sem_run-01/stereo_2SL65A0.wav	1.0	1	1.48
111.084	3.83	S_H	1.0	n/a	n/a	1.0	1.712	Sem/Sem_run-01/stereo_1SH07A0.wav	1.0	1	1.462
114.921	4.3439999999999985	S_C	1.0	n/a	n/a	1.0	0.08	Sem/Sem_run-01/ContS07.wav	1.0	1	0.83
119.274	3.5	S_H	1.0	n/a	n/a	1.0	1.3869999999999998	Sem/Sem_run-01/stereo_1SH03A0.wav	1.0	1	1.1369999999999998
122.777	3.919	S_U	2.0	n/a	n/a	2.0	1.422	Sem/Sem_run-01/stereo_1SU45A0.wav	2.0	1	1.172
126.696	3.5	S_H	1.0	n/a	n/a	1.0	1.8330000000000002	Sem/Sem_run-01/stereo_1SH06A0.wav	1.0	1	1.583
130.19899999999998	3.392	S_L	1.0	n/a	n/a	1.0	1.847	Sem/Sem_run-01/stereo_2SL62A0.wav	1.0	1	1.597
133.602	3.54	S_C	1.0	n/a	n/a	1.0	0.705	Sem/Sem_run-01/ContS19.wav	1.0	1	1.455
137.154	4.4	S_H	1.0	n/a	n/a	1.0	1.17	Sem/Sem_run-01/stereo_1SH15A0.wav	1.0	1	0.9199999999999999
141.558	3.342	S_H	1.0	n/a	n/a	1.0	1.8769999999999998	Sem/Sem_run-01/stereo_1SH11A0.wav	1.0	1	1.627
144.91	3.385	S_U	2.0	n/a	n/a	2.0	1.983	Sem/Sem_run-01/stereo_1SU44A0.wav	2.0	1	1.733
148.296	3.4160000000000004	S_H	1.0	n/a	n/a	n/a	n/a	Sem/Sem_run-01/stereo_2SH56A0.wav	n/a	0	n/a
151.716	3.849	S_U	2.0	n/a	n/a	2.0	1.551	Sem/Sem_run-01/stereo_2SU82A0.wav	2.0	1	1.301
155.56799999999996	3.934	S_C	1.0	n/a	n/a	1.0	0.111	Sem/Sem_run-01/ContS13.wav	1.0	1	0.861
159.505	4.309	S_L	1.0	n/a	n/a	1.0	1.168	Sem/Sem_run-01/stereo_2SL64A0.wav	1.0	1	0.9179999999999999
163.825	4.413	S_C	1.0	n/a	n/a	1.0	0.976	Sem/Sem_run-01/ContS17.wav	1.0	1	1.726
168.245	4.2	S_U	2.0	n/a	n/a	2.0	1.609	Sem/Sem_run-01/stereo_2SU90A0.wav	2.0	1	1.359
172.44799999999995	3.846	S_U	2.0	n/a	n/a	2.0	1.262	Sem/Sem_run-01/stereo_2SU88A0.wav	2.0	1	1.012
176.301	3.3939999999999997	S_C	1.0	n/a	n/a	1.0	0.153	Sem/Sem_run-01/ContS01.wav	1.0	1	0.903
179.704	4.013	S_C	1.0	n/a	n/a	1.0	0.251	Sem/Sem_run-01/ContS23.wav	1.0	1	1.001
183.72299999999998	4.227	S_H	1.0	n/a	n/a	1.0	1.276	Sem/Sem_run-01/stereo_1SH08A0.wav	1.0	1	1.026
