onset	duration	trial_type	correct	window1_response	window1_RT	window2_response	window2_RT	stim_file	calculated_response	calculated_accuracy	calculated_RT
1.0937	6.343	SP_S	1.0	n/a	n/a	1.0	4.263	Plaus/Plaus_run-02/stereo_PC37.wav	1.0	1	2.1019999999999994
7.4482	6.345	SP_W	1.0	n/a	n/a	1.0	3.7689999999999997	Plaus/Plaus_run-02/stereo_PW74.wav	1.0	1	1.8000000000000005
13.8029	6.095	SP_C	1.0	n/a	n/a	1.0	3.155	Plaus/Plaus_run-02/CoM10d.wav	1.0	1	3.905
19.9073	6.401	SP_I	2.0	n/a	n/a	2.0	2.656	Plaus/Plaus_run-02/stereo_PI56.wav	2.0	1	1.7890000000000001
26.313000000000002	6.407	SP_W	1.0	n/a	n/a	1.0	3.429	Plaus/Plaus_run-02/stereo_PW39.wav	1.0	1	1.4019999999999997
32.7344	6.8420000000000005	SP_I	2.0	n/a	n/a	2.0	3.951	Plaus/Plaus_run-02/stereo_PI44.wav	2.0	1	1.754
39.5893	7.7	SP_C	1.0	n/a	n/a	1.0	1.56	Plaus/Plaus_run-02/CoM07e.wav	1.0	1	2.31
47.295	5.756	SP_S	1.0	n/a	n/a	1.0	3.366	Plaus/Plaus_run-02/stereo_PC03.wav	1.0	1	2.4240000000000004
53.0655	7.372000000000001	SP_S	1.0	n/a	n/a	1.0	3.405	Plaus/Plaus_run-02/stereo_PC82.wav	1.0	1	1.3499999999999996
60.4386	6.095	SP_C	1.0	n/a	n/a	1.0	1.084	Plaus/Plaus_run-02/CoM04d.wav	1.0	1	1.834
66.5431	6.303	SP_I	2.0	n/a	n/a	2.0	2.679	Plaus/Plaus_run-02/stereo_PI23.wav	2.0	1	1.6949999999999996
72.8488	5.655	SP_I	2.0	n/a	n/a	2.0	2.7089999999999996	Plaus/Plaus_run-02/stereo_PI22.wav	2.0	1	1.79
78.5141	6.85	SP_C	1.0	n/a	n/a	1.0	1.0270000000000001	Plaus/Plaus_run-02/CoM08d.wav	1.0	1	1.777
85.3693	6.9179999999999975	SP_S	1.0	n/a	n/a	2.0	4.427	Plaus/Plaus_run-02/stereo_PC79.wav	2.0	0	2.181
92.2921	5.233	SP_I	2.0	n/a	n/a	2.0	2.6860000000000004	Plaus/Plaus_run-02/stereo_PI21.wav	2.0	1	1.6460000000000006
97.5292	6.385	SP_S	1.0	n/a	n/a	1.0	3.984	Plaus/Plaus_run-02/stereo_PC46.wav	1.0	1	3.022
103.9184	6.282	SP_W	1.0	n/a	n/a	1.0	3.725	Plaus/Plaus_run-02/stereo_PW64.wav	1.0	1	2.6189999999999998
110.2063	7.69	SP_C	1.0	n/a	n/a	1.0	4.095	Plaus/Plaus_run-02/CoM04e.wav	1.0	1	4.845
117.9072	6.316	SP_I	2.0	n/a	n/a	2.0	4.008	Plaus/Plaus_run-02/stereo_PI34.wav	2.0	1	1.851
124.2283	5.47	SP_C	1.0	n/a	n/a	1.0	1.652	Plaus/Plaus_run-02/CoM10b.wav	1.0	1	2.4019999999999997
129.7001	5.636	SP_I	2.0	n/a	n/a	2.0	3.175	Plaus/Plaus_run-02/stereo_PI55.wav	2.0	1	2.3359999999999994
135.3387	7.461	SP_W	1.0	n/a	n/a	2.0	4.7780000000000005	Plaus/Plaus_run-02/stereo_PW83.wav	2.0	0	2.7740000000000014
142.8107	5.48	SP_C	1.0	n/a	n/a	1.0	3.234	Plaus/Plaus_run-02/CoM01b.wav	1.0	1	3.984
148.298	6.2120000000000015	SP_W	1.0	n/a	n/a	1.0	2.259	Plaus/Plaus_run-02/stereo_PW08.wav	1.0	1	1.3980000000000001
154.5192	4.694	SP_W	1.0	n/a	n/a	1.0	3.275	Plaus/Plaus_run-02/stereo_PW07.wav	1.0	1	2.4
159.2226	6.197	SP_I	2.0	n/a	n/a	2.0	3.9610000000000003	Plaus/Plaus_run-02/stereo_PI43.wav	2.0	1	1.901
165.4272	6.1979999999999995	SP_S	1.0	n/a	n/a	1.0	3.034	Plaus/Plaus_run-02/stereo_PC59.wav	1.0	1	2.033
171.6318	7.345	SP_C	1.0	n/a	n/a	1.0	1.0490000000000002	Plaus/Plaus_run-02/CoM05l.wav	1.0	1	1.7990000000000002
178.9871	5.2429999999999986	SP_S	1.0	n/a	n/a	1.0	2.477	Plaus/Plaus_run-02/stereo_PC02.wav	1.0	1	1.598
184.2409	6.82	SP_C	1.0	n/a	n/a	1.0	3.5410000000000004	Plaus/Plaus_run-02/CoM09l.wav	1.0	1	4.291
191.0636	7.183	SP_I	2.0	n/a	n/a	2.0	3.983	Plaus/Plaus_run-02/stereo_PI78.wav	2.0	1	2.065
198.2522	6.727	SP_W	1.0	n/a	n/a	1.0	4.546	Plaus/Plaus_run-02/stereo_PW40.wav	1.0	1	2.313
204.9904	5.181	SP_S	1.0	n/a	n/a	1.0	2.852	Plaus/Plaus_run-02/stereo_PC60.wav	1.0	1	1.5619999999999998
210.1775	7.135	SP_W	1.0	n/a	n/a	1.0	3.5980000000000003	Plaus/Plaus_run-02/stereo_PW73.wav	1.0	1	1.666
217.3172	6.76	SP_C	1.0	n/a	n/a	1.0	0.996	Plaus/Plaus_run-02/CoM04l.wav	1.0	1	1.746
224.0887	6.682	SP_I	2.0	n/a	n/a	2.0	3.4560000000000004	Plaus/Plaus_run-02/stereo_PI75.wav	2.0	1	1.4600000000000004
230.7769	6.002999999999999	SP_W	1.0	n/a	n/a	2.0	3.1180000000000003	Plaus/Plaus_run-02/stereo_PW63.wav	2.0	0	1.9710000000000003
236.7825	5.0760000000000005	SP_W	1.0	n/a	n/a	1.0	3.4	Plaus/Plaus_run-02/stereo_PW05.wav	1.0	1	2.622
241.8694	6.218	SP_S	1.0	n/a	n/a	1.0	3.4810000000000003	Plaus/Plaus_run-02/stereo_PC69.wav	1.0	1	1.2440000000000009
248.0918	6.569	SP_S	1.0	n/a	n/a	1.0	4.081	Plaus/Plaus_run-02/stereo_PC70.wav	1.0	1	2.2050000000000005
