onset	duration	trial_type	correct	window1_response	window1_RT	window2_response	window2_RT	stim_file	calculated_response	calculated_accuracy	calculated_RT
1.0925	3.4539999999999997	P_R	1.0	n/a	n/a	1.0	1.215	Phon/Phon_run-01/stereo_PR01.wav	1.0	1	0.9650000000000001
4.5615	3.767	P_O	1.0	n/a	n/a	1.0	1.3659999999999999	Phon/Phon_run-01/PC018.wav	1.0	1	1.116
8.3317	3.391	P_O	1.0	n/a	n/a	n/a	n/a	Phon/Phon_run-01/PC009.wav	n/a	0	n/a
11.7341	4.374	P_C	1.0	n/a	n/a	1.0	0.8420000000000001	Phon/Phon_run-01/ContS11.wav	1.0	1	1.592
16.1207	3.345	P_U	2.0	n/a	n/a	2.0	1.306	Phon/Phon_run-01/PM002.wav	2.0	1	1.056
19.473	4.4510000000000005	P_C	1.0	n/a	n/a	n/a	n/a	Phon/Phon_run-01/ContS21.wav	n/a	0	n/a
23.9275	4.382	P_O	1.0	n/a	n/a	1.0	1.7630000000000001	Phon/Phon_run-01/PC005.wav	1.0	1	1.513
28.314	3.3	P_U	2.0	n/a	n/a	n/a	n/a	Phon/Phon_run-01/stereo_PU26.wav	n/a	0	n/a
31.6165	4.324	P_C	1.0	n/a	n/a	n/a	n/a	Phon/Phon_run-01/ContS03.wav	n/a	0	n/a
35.9529	4.378	P_R	1.0	n/a	n/a	1.0	1.5730000000000002	Phon/Phon_run-01/stereo_PR29.wav	1.0	1	1.3230000000000002
40.3393	3.4810000000000003	P_U	2.0	n/a	n/a	2.0	1.4969999999999999	Phon/Phon_run-01/PM020.wav	2.0	1	1.247
43.8252	4.393	P_O	1.0	n/a	n/a	1.0	1.9480000000000002	Phon/Phon_run-01/PC027.wav	1.0	1	1.698
48.2284	4.4	P_R	1.0	n/a	n/a	1.0	1.334	Phon/Phon_run-01/stereo_PR11.wav	1.0	1	1.084
52.6316	3.884	P_C	1.0	n/a	n/a	n/a	n/a	Phon/Phon_run-01/ContS05.wav	n/a	0	n/a
56.5186	3.891	P_U	2.0	n/a	n/a	2.0	1.7169999999999999	Phon/Phon_run-01/stereo_PU28.wav	2.0	1	1.467
60.4213	4.4	P_O	1.0	n/a	n/a	1.0	1.716	Phon/Phon_run-01/PC013.wav	1.0	1	1.466
64.8247	3.513	P_C	1.0	n/a	n/a	1.0	0.643	Phon/Phon_run-01/ContS17.wav	1.0	1	1.393
68.3439	4.4	P_U	2.0	n/a	n/a	2.0	1.849	Phon/Phon_run-01/PM027.wav	2.0	1	1.599
72.7471	4.4	P_O	1.0	n/a	n/a	1.0	1.492	Phon/Phon_run-01/PC021.wav	1.0	1	1.242
77.1504	4.496	P_C	1.0	n/a	n/a	n/a	n/a	Phon/Phon_run-01/ContS29.wav	n/a	0	n/a
81.6536	3.3680000000000003	P_R	1.0	n/a	n/a	2.0	1.369	Phon/Phon_run-01/stereo_PR25.wav	2.0	0	1.119
85.0239	3.95	P_O	1.0	n/a	n/a	1.0	1.2	Phon/Phon_run-01/PC012.wav	1.0	1	0.95
88.9768	3.95	P_U	2.0	n/a	n/a	2.0	1.6019999999999999	Phon/Phon_run-01/PM003.wav	2.0	1	1.352
92.9297	3.939	P_O	1.0	n/a	n/a	1.0	2.421	Phon/Phon_run-01/PC004.wav	1.0	1	2.171
96.8826	3.59	P_C	1.0	n/a	n/a	n/a	n/a	Phon/Phon_run-01/ContS27.wav	n/a	0	n/a
100.4851	4.296	P_U	2.0	n/a	n/a	n/a	n/a	Phon/Phon_run-01/stereo_PU21.wav	n/a	0	n/a
104.7882	3.862	P_R	1.0	n/a	n/a	1.0	1.376	Phon/Phon_run-01/stereo_PR26.wav	1.0	1	1.126
108.6576	3.95	P_O	1.0	n/a	n/a	2.0	1.499	Phon/Phon_run-01/PC026.wav	2.0	0	1.249
112.6107	3.5	P_O	1.0	n/a	n/a	1.0	1.65	Phon/Phon_run-01/PC025.wav	1.0	1	1.4
116.1133	4.013	P_C	1.0	n/a	n/a	n/a	n/a	Phon/Phon_run-01/ContS23.wav	n/a	0	n/a
120.1329	3.792	P_R	1.0	n/a	n/a	n/a	n/a	Phon/Phon_run-01/stereo_PR18.wav	n/a	0	n/a
123.9359	3.346	P_U	2.0	n/a	n/a	n/a	n/a	Phon/Phon_run-01/stereo_PU19.wav	n/a	0	n/a
127.2885	3.891	P_R	1.0	n/a	n/a	n/a	n/a	Phon/Phon_run-01/stereo_PR03.wav	n/a	0	n/a
131.1913	3.355	P_O	1.0	n/a	n/a	1.0	1.172	Phon/Phon_run-01/PC003.wav	1.0	1	0.9219999999999999
134.5604	3.951	P_C	1.0	n/a	n/a	n/a	n/a	Phon/Phon_run-01/ContS15.wav	n/a	0	n/a
138.5144	3.74	P_U	2.0	n/a	n/a	2.0	1.27	Phon/Phon_run-01/stereo_PU16.wav	2.0	1	1.02
142.2671	3.95	P_R	1.0	n/a	n/a	n/a	n/a	Phon/Phon_run-01/stereo_PR10.wav	n/a	0	n/a
146.22	3.464	P_C	1.0	n/a	n/a	1.0	0.8390000000000001	Phon/Phon_run-01/ContS09.wav	1.0	1	1.589
149.6892	4.275	P_R	1.0	n/a	n/a	1.0	2.1719999999999997	Phon/Phon_run-01/stereo_PR04.wav	1.0	1	1.9220000000000002
153.9756	3.95	P_U	2.0	n/a	n/a	2.0	1.146	Phon/Phon_run-01/PM023.wav	2.0	1	0.8959999999999999
157.9284	4.4	P_U	2.0	n/a	n/a	1.0	1.76	Phon/Phon_run-01/PM001.wav	1.0	0	1.51
162.3319	3.665	P_C	1.0	n/a	n/a	1.0	1.093	Phon/Phon_run-01/ContS35.wav	1.0	1	1.843
166.0011	3.463	P_O	1.0	n/a	n/a	1.0	2.181	Phon/Phon_run-01/PC017.wav	1.0	1	1.931
169.4703	4.332	P_R	1.0	n/a	n/a	1.0	1.4869999999999999	Phon/Phon_run-01/stereo_PR19.wav	1.0	1	1.237
173.8067	4.083	P_C	1.0	n/a	n/a	n/a	n/a	Phon/Phon_run-01/ContS33.wav	n/a	0	n/a
177.893	3.5	P_R	1.0	n/a	n/a	1.0	1.8769999999999998	Phon/Phon_run-01/stereo_PR17.wav	1.0	1	1.627
181.3956	4.2669999999999995	P_U	2.0	n/a	n/a	2.0	1.475	Phon/Phon_run-01/PM009.wav	2.0	1	1.225
185.6658	3.4389999999999996	P_R	1.0	n/a	n/a	1.0	1.3259999999999998	Phon/Phon_run-01/stereo_PR09.wav	1.0	1	1.0759999999999998
