onset	duration	trial_type	correct	window1_response	window1_RT	window2_response	window2_RT	stim_file	calculated_response	calculated_accuracy	calculated_RT
1.084	6.895	G_F	2.0	n/a	n/a	1.0	2.992	Gram/Gram_run-01/stereo_2MF57U2.wav	1.0	0	3.742
7.989	7.175	G_F	2.0	n/a	n/a	1.0	3.705	Gram/Gram_run-01/stereo_1MF15U3.wav	1.0	0	4.455
15.178	6.5070000000000014	G_G	1.0	n/a	n/a	1.0	3.0580000000000003	Gram/Gram_run-01/stereo_1MF11G2.wav	1.0	1	1.8780000000000001
21.7	6.505	G_C	1.0	1.0	0.545	1.0	1.722	Gram/Gram_run-01/CoM09d.wav	1.0	1	0.545
28.205	6.9479999999999995	G_F	2.0	n/a	n/a	1.0	4.8660000000000005	Gram/Gram_run-01/stereo_2MF68U4.wav	1.0	0	4.140000000000001
35.16	5.541	G_P	2.0	n/a	n/a	2.0	3.114	Gram/Gram_run-01/stereo_1MP37U3.wav	2.0	1	2.0789999999999997
40.715	5.9479999999999995	G_G	1.0	n/a	n/a	1.0	4.716	Gram/Gram_run-01/stereo_2MF50G1.wav	1.0	1	2.6210000000000004
46.669	6.013	G_F	2.0	n/a	n/a	2.0	3.9610000000000003	Gram/Gram_run-01/stereo_1MF05U1.wav	2.0	1	3.359
52.691	7.87	G_C	1.0	1.0	0.531	1.0	2.734	Gram/Gram_run-01/CoM01l.wav	1.0	1	0.531
60.563	6.4979999999999976	G_G	1.0	n/a	n/a	1.0	4.198	Gram/Gram_run-01/stereo_1MF23G4.wav	1.0	1	2.0170000000000003
67.068	6.184	G_F	2.0	n/a	n/a	1.0	2.8930000000000002	Gram/Gram_run-01/stereo_2MF55U2.wav	1.0	0	3.643
73.256	6.83	G_C	1.0	1.0	0.478	n/a	n/a	Gram/Gram_run-01/CoM10l.wav	1.0	1	0.478
80.095	7.505	G_G	1.0	n/a	n/a	1.0	4.843999999999999	Gram/Gram_run-01/stereo_2MP96G4.wav	1.0	1	2.448999999999999
87.601	7.1370000000000005	G_G	1.0	n/a	n/a	1.0	4.484	Gram/Gram_run-01/stereo_1MP47G4.wav	1.0	1	2.0170000000000003
94.74	6.694	G_F	2.0	n/a	n/a	2.0	3.44	Gram/Gram_run-01/stereo_2MF61U3.wav	2.0	1	4.1899999999999995
101.445	5.39	G_C	1.0	n/a	n/a	1.0	0.11199999999999999	Gram/Gram_run-01/CoM01d.wav	1.0	1	0.862
106.849	6.5760000000000005	G_G	1.0	n/a	n/a	1.0	3.915	Gram/Gram_run-01/stereo_1MP35G2.wav	1.0	1	2.911
113.437	5.3389999999999995	G_F	2.0	n/a	n/a	2.0	4.12	Gram/Gram_run-01/stereo_2MF69U4.wav	2.0	1	3.3820000000000006
118.791	7.94	G_C	1.0	n/a	n/a	1.0	0.052000000000000005	Gram/Gram_run-01/CoM08l.wav	1.0	1	0.802
126.731	6.006	G_P	2.0	n/a	n/a	2.0	3.9789999999999996	Gram/Gram_run-01/stereo_1MP26U1.wav	2.0	1	2.003
132.752	8.422	G_F	2.0	n/a	n/a	2.0	3.5669999999999997	Gram/Gram_run-01/stereo_1MF06U1.wav	2.0	1	2.9719999999999995
141.175	7.885	G_P	2.0	n/a	n/a	2.0	3.318	Gram/Gram_run-01/stereo_2MP81U2.wav	2.0	1	2.433
149.065	6.1270000000000024	G_G	1.0	n/a	n/a	1.0	3.432	Gram/Gram_run-01/stereo_2MP83G2.wav	1.0	1	2.372
155.203	5.765	G_C	1.0	1.0	0.7170000000000001	n/a	n/a	Gram/Gram_run-01/CoM02b.wav	1.0	1	0.7170000000000001
160.974	6.706	G_P	2.0	n/a	n/a	2.0	4.376	Gram/Gram_run-01/stereo_2MP93U4.wav	2.0	1	1.9760000000000009
167.696	6.61	G_P	2.0	n/a	n/a	2.0	4.105	Gram/Gram_run-01/stereo_1MP28U1.wav	2.0	1	1.990000000000001
174.31799999999996	6.63	G_C	1.0	n/a	n/a	1.0	0.15	Gram/Gram_run-01/CoM04b.wav	1.0	1	0.9
180.956	5.665	G_P	2.0	n/a	n/a	2.0	4.056	Gram/Gram_run-01/stereo_1MP27U1.wav	2.0	1	2.0540000000000003
186.627	7.55	G_G	1.0	n/a	n/a	1.0	4.364	Gram/Gram_run-01/stereo_2MP77G1.wav	1.0	1	2.2649999999999997
194.183	6.51	G_C	1.0	n/a	n/a	1.0	0.013000000000000001	Gram/Gram_run-01/CoM03e.wav	1.0	1	0.763
200.705	6.98	G_P	2.0	n/a	n/a	2.0	4.614	Gram/Gram_run-01/stereo_2MP92U4.wav	2.0	1	2.2649999999999997
207.693	7.047999999999999	G_G	1.0	n/a	n/a	1.0	3.051	Gram/Gram_run-01/stereo_1MF12G2.wav	1.0	1	2.0170000000000003
214.749	5.574	G_F	2.0	n/a	n/a	n/a	n/a	Gram/Gram_run-01/stereo_1MF04U1.wav	n/a	0	n/a
220.336	5.67	G_C	1.0	n/a	n/a	1.0	0.823	Gram/Gram_run-01/CoM07d.wav	1.0	1	1.573
226.007	6.6160000000000005	G_P	2.0	n/a	n/a	2.0	3.133	Gram/Gram_run-01/stereo_1MP39U3.wav	2.0	1	2.129
232.629	5.695	G_P	2.0	n/a	n/a	2.0	2.943	Gram/Gram_run-01/stereo_2MP82U2.wav	2.0	1	2.0220000000000002
238.334	6.6270000000000024	G_F	2.0	n/a	n/a	1.0	3.44	Gram/Gram_run-01/stereo_1MF13U3.wav	1.0	0	4.1899999999999995
244.972	7.145	G_C	1.0	n/a	n/a	1.0	0.203	Gram/Gram_run-01/CoM08e.wav	1.0	1	0.9530000000000001
252.128	6.805	G_G	1.0	n/a	n/a	1.0	3.841	Gram/Gram_run-01/stereo_1MP41G3.wav	1.0	1	2.535
258.933	7.519	G_P	2.0	n/a	n/a	2.0	3.4610000000000003	Gram/Gram_run-01/stereo_1MP38U3.wav	2.0	1	2.2220000000000004
