onset	duration	trial_type	correct	window1_response	window1_RT	window2_response	window2_RT	stim_file	calculated_response	calculated_accuracy	calculated_RT
1.1	7.034	SP_W	1.0	n/a	n/a	1.0	4.279	Plaus/Plaus_run-01/stereo_PW85.wav	1.0	1	2.132
8.139	5.641	SP_I	2.0	n/a	n/a	2.0	2.5869999999999997	Plaus/Plaus_run-01/stereo_PI11.wav	2.0	1	1.6669999999999998
13.793	6.77	SP_C	1.0	n/a	n/a	1.0	0.14	Plaus/Plaus_run-01/CoM08b.wav	1.0	1	0.89
20.565	7.327000000000001	SP_W	1.0	n/a	n/a	1.0	3.497	Plaus/Plaus_run-01/stereo_PW72.wav	1.0	1	1.517
27.904	6.145	SP_C	1.0	n/a	n/a	1.0	0.10099999999999999	Plaus/Plaus_run-01/CoM05d.wav	1.0	1	0.851
34.059	5.181	SP_I	2.0	n/a	n/a	2.0	2.775	Plaus/Plaus_run-01/stereo_PI65.wav	2.0	1	1.833
39.246	5.092	SP_S	1.0	n/a	n/a	1.0	3.057	Plaus/Plaus_run-01/stereo_PC13.wav	1.0	1	1.994
44.35	7.355	SP_C	1.0	1.0	0.639	n/a	n/a	Plaus/Plaus_run-01/CoM06l.wav	1.0	1	0.639
51.706	7.47	SP_I	2.0	n/a	n/a	2.0	3.903	Plaus/Plaus_run-01/stereo_PI90.wav	2.0	1	1.7320000000000002
59.178	7.399	SP_S	1.0	n/a	n/a	1.0	3.799	Plaus/Plaus_run-01/stereo_PC35.wav	1.0	1	1.5319999999999998
66.584	5.685	SP_S	1.0	n/a	n/a	1.0	2.786	Plaus/Plaus_run-01/stereo_PC47.wav	1.0	1	1.777
72.271	5.669	SP_W	1.0	n/a	n/a	1.0	2.737	Plaus/Plaus_run-01/stereo_PW19.wav	1.0	1	1.7309999999999999
77.942	7.9	SP_C	1.0	n/a	n/a	1.0	0.35200000000000004	Plaus/Plaus_run-01/CoM03l.wav	1.0	1	1.102
85.848	5.145	SP_I	2.0	n/a	n/a	2.0	2.62	Plaus/Plaus_run-01/stereo_PI09.wav	2.0	1	1.6120000000000003
91.002	6.9170000000000025	SP_W	1.0	n/a	n/a	1.0	3.7430000000000003	Plaus/Plaus_run-01/stereo_PW30.wav	1.0	1	1.6229999999999998
97.924	5.738	SP_S	1.0	n/a	n/a	1.0	3.2039999999999997	Plaus/Plaus_run-01/stereo_PC14.wav	1.0	1	2.0330000000000004
103.662	6.276	SP_W	1.0	n/a	n/a	1.0	2.384	Plaus/Plaus_run-01/stereo_PW50.wav	1.0	1	1.5619999999999998
109.95	5.49	SP_C	1.0	n/a	n/a	1.0	0.124	Plaus/Plaus_run-01/CoM03d.wav	1.0	1	0.8740000000000001
115.454	5.7	SP_I	2.0	n/a	n/a	2.0	2.681	Plaus/Plaus_run-01/stereo_PI67.wav	2.0	1	1.79
121.158	7.237	SP_S	1.0	n/a	n/a	1.0	3.4	Plaus/Plaus_run-01/stereo_PC68.wav	1.0	1	1.4339999999999995
128.39700000000002	6.49	SP_C	1.0	n/a	n/a	1.0	0.195	Plaus/Plaus_run-01/CoM03b.wav	1.0	1	0.945
134.90200000000002	6.25	SP_W	1.0	n/a	n/a	1.0	2.7910000000000004	Plaus/Plaus_run-01/stereo_PW61.wav	1.0	1	1.8110000000000004
141.157	6.952999999999999	SP_I	2.0	n/a	n/a	2.0	4.09	Plaus/Plaus_run-01/stereo_PI32.wav	2.0	1	1.925
148.112	7.085	SP_C	1.0	n/a	n/a	1.0	0.38299999999999995	Plaus/Plaus_run-01/CoM02e.wav	1.0	1	1.133
155.201	6.3610000000000015	SP_S	1.0	n/a	n/a	1.0	3.7960000000000003	Plaus/Plaus_run-01/stereo_PC24.wav	1.0	1	1.5379999999999998
161.57299999999995	5.1110000000000015	SP_W	1.0	n/a	n/a	1.0	2.559	Plaus/Plaus_run-01/stereo_PW53.wav	1.0	1	1.5450000000000004
166.69299999999996	6.2860000000000005	SP_I	2.0	n/a	n/a	2.0	3.762	Plaus/Plaus_run-01/stereo_PI42.wav	2.0	1	1.5660000000000005
172.981	6.577000000000001	SP_S	1.0	n/a	n/a	1.0	2.7039999999999997	Plaus/Plaus_run-01/stereo_PC57.wav	1.0	1	1.509
179.57	5.273	SP_W	1.0	n/a	n/a	1.0	2.9810000000000003	Plaus/Plaus_run-01/stereo_PW18.wav	1.0	1	1.8140000000000005
184.857	5.77	SP_C	1.0	1.0	0.703	n/a	n/a	Plaus/Plaus_run-01/CoM09b.wav	1.0	1	0.703
190.628	6.731	SP_S	1.0	n/a	n/a	1.0	3.525	Plaus/Plaus_run-01/stereo_PC26.wav	1.0	1	1.4249999999999998
197.366	7.212999999999999	SP_I	2.0	n/a	n/a	2.0	3.63	Plaus/Plaus_run-01/stereo_PI33.wav	2.0	1	1.6469999999999998
204.58900000000003	5.181	SP_S	1.0	n/a	n/a	1.0	2.79	Plaus/Plaus_run-01/stereo_PC01.wav	1.0	1	1.849
209.776	6.238	SP_S	1.0	n/a	n/a	1.0	3.542	Plaus/Plaus_run-01/stereo_PC36.wav	1.0	1	1.4959999999999996
216.014	7.73	SP_C	1.0	n/a	n/a	1.0	0.12300000000000001	Plaus/Plaus_run-01/CoM10e.wav	1.0	1	0.873
223.753	6.843	SP_I	2.0	n/a	n/a	2.0	3.582	Plaus/Plaus_run-01/stereo_PI45.wav	2.0	1	1.455
230.608	6.101	SP_W	1.0	n/a	n/a	1.0	3.662	Plaus/Plaus_run-01/stereo_PW28.wav	1.0	1	1.7299999999999995
236.713	7.419	SP_W	1.0	n/a	n/a	1.0	3.602	Plaus/Plaus_run-01/stereo_PW86.wav	1.0	1	1.5660000000000005
244.135	6.54	SP_C	1.0	1.0	0.634	n/a	n/a	Plaus/Plaus_run-01/CoM05e.wav	1.0	1	0.634
250.69	6.247000000000001	SP_I	2.0	n/a	n/a	2.0	2.5580000000000003	Plaus/Plaus_run-01/stereo_PI12.wav	2.0	1	1.6870000000000005
