onset	duration	trial_type	correct	window1_response	window1_RT	window2_response	window2_RT	stim_file	calculated_response	calculated_accuracy	calculated_RT
1.101	4.2	S_U	2.0	n/a	n/a	1.0	1.446	Sem/Sem_run-01/stereo_1SU41A0.wav	1.0	0	1.196
5.3039999999999985	3.596	S_C	1.0	1.0	0.7090000000000001	n/a	n/a	Sem/Sem_run-01/ContS29.wav	1.0	1	0.7090000000000001
8.907	3.425	S_U	2.0	n/a	n/a	2.0	1.7590000000000001	Sem/Sem_run-01/stereo_2SU87A0.wav	2.0	1	1.509
12.343	3.933	S_H	1.0	n/a	n/a	1.0	1.306	Sem/Sem_run-01/stereo_1SH13A0.wav	1.0	1	1.056
16.279	4.323	S_H	1.0	n/a	n/a	1.0	0.9490000000000001	Sem/Sem_run-01/stereo_1SH05A0.wav	1.0	1	0.699
20.616	4.073	S_C	1.0	n/a	n/a	1.0	0.94	Sem/Sem_run-01/ContS31.wav	1.0	1	1.69
24.701999999999998	3.869	S_L	1.0	n/a	n/a	1.0	1.272	Sem/Sem_run-01/stereo_2SL63A0.wav	1.0	1	1.022
28.572	3.75	S_L	1.0	n/a	n/a	1.0	1.5019999999999998	Sem/Sem_run-01/stereo_1SL29A0.wav	1.0	1	1.2519999999999998
32.325	4.3660000000000005	S_U	2.0	n/a	n/a	n/a	n/a	Sem/Sem_run-01/stereo_2SU78A0.wav	n/a	0	n/a
36.695	3.3	S_L	1.0	n/a	n/a	1.0	1.9709999999999999	Sem/Sem_run-01/stereo_1SL17A0.wav	1.0	1	1.721
39.997	3.884	S_C	1.0	n/a	n/a	1.0	0.094	Sem/Sem_run-01/ContS05.wav	1.0	1	0.844
43.883	4.371	S_H	1.0	n/a	n/a	1.0	1.276	Sem/Sem_run-01/stereo_2SH58A0.wav	1.0	1	1.026
48.27	4.329	S_L	1.0	n/a	n/a	1.0	1.2590000000000001	Sem/Sem_run-01/stereo_2SL72A0.wav	1.0	1	1.009
52.607	3.94	S_H	1.0	n/a	n/a	1.0	1.7690000000000001	Sem/Sem_run-01/stereo_2SH57A0.wav	1.0	1	1.519
56.56	4.2	S_U	2.0	n/a	n/a	2.0	1.6480000000000001	Sem/Sem_run-01/stereo_2SU83A0.wav	2.0	1	1.398
60.76300000000001	3.474	S_C	1.0	n/a	n/a	n/a	n/a	Sem/Sem_run-01/ContS11.wav	n/a	0	n/a
64.249	4.271	S_L	1.0	n/a	n/a	1.0	1.857	Sem/Sem_run-01/stereo_1SL26A0.wav	1.0	1	1.607
68.536	3.91	S_L	1.0	n/a	n/a	1.0	2.064	Sem/Sem_run-01/stereo_1SL25A0.wav	1.0	1	1.814
72.455	4.479	S_C	1.0	n/a	n/a	n/a	n/a	Sem/Sem_run-01/ContS25.wav	n/a	0	n/a
76.942	3.378	S_U	2.0	n/a	n/a	2.0	1.577	Sem/Sem_run-01/stereo_2SU81A0.wav	2.0	1	1.327
80.328	3.42	S_L	1.0	n/a	n/a	1.0	1.8840000000000001	Sem/Sem_run-01/stereo_1SL27A0.wav	1.0	1	1.634
83.764	4.3439999999999985	S_L	1.0	n/a	n/a	1.0	0.9640000000000001	Sem/Sem_run-01/stereo_1SL30A0.wav	1.0	1	0.714
88.117	3.909	S_L	1.0	n/a	n/a	1.0	1.8969999999999998	Sem/Sem_run-01/stereo_2SL71A0.wav	1.0	1	1.647
92.037	3.867	S_H	1.0	n/a	n/a	1.0	2.169	Sem/Sem_run-01/stereo_1SH04A0.wav	1.0	1	1.919
95.906	3.828	S_U	2.0	n/a	n/a	2.0	1.764	Sem/Sem_run-01/stereo_1SU37A0.wav	2.0	1	1.514
99.743	4.565	S_C	1.0	n/a	n/a	1.0	1.2990000000000002	Sem/Sem_run-01/ContS35.wav	1.0	1	2.0490000000000004
104.31299999999999	3.3	S_U	2.0	n/a	n/a	1.0	1.8130000000000002	Sem/Sem_run-01/stereo_1SU35A0.wav	1.0	0	1.563
107.615	3.477	S_L	1.0	n/a	n/a	2.0	1.1440000000000001	Sem/Sem_run-01/stereo_2SL65A0.wav	2.0	0	0.8939999999999999
111.101	3.83	S_H	1.0	n/a	n/a	1.0	1.214	Sem/Sem_run-01/stereo_1SH07A0.wav	1.0	1	0.964
114.93799999999999	4.3439999999999985	S_C	1.0	n/a	n/a	1.0	0.195	Sem/Sem_run-01/ContS07.wav	1.0	1	0.9450000000000001
119.291	3.5	S_H	1.0	n/a	n/a	1.0	1.4669999999999999	Sem/Sem_run-01/stereo_1SH03A0.wav	1.0	1	1.217
122.79299999999999	3.919	S_U	2.0	n/a	n/a	2.0	1.6669999999999998	Sem/Sem_run-01/stereo_1SU45A0.wav	2.0	1	1.4169999999999998
126.713	3.5	S_H	1.0	n/a	n/a	1.0	1.7619999999999998	Sem/Sem_run-01/stereo_1SH06A0.wav	1.0	1	1.5119999999999998
130.216	3.392	S_L	1.0	n/a	n/a	n/a	n/a	Sem/Sem_run-01/stereo_2SL62A0.wav	n/a	0	n/a
133.618	3.54	S_C	1.0	n/a	n/a	n/a	n/a	Sem/Sem_run-01/ContS19.wav	n/a	0	n/a
137.171	4.4	S_H	1.0	n/a	n/a	1.0	1.26	Sem/Sem_run-01/stereo_1SH15A0.wav	1.0	1	1.01
141.57399999999996	3.342	S_H	1.0	n/a	n/a	1.0	0.847	Sem/Sem_run-01/stereo_1SH11A0.wav	1.0	1	0.597
144.92700000000005	3.385	S_U	2.0	n/a	n/a	2.0	1.3090000000000002	Sem/Sem_run-01/stereo_1SU44A0.wav	2.0	1	1.0590000000000002
148.313	3.4160000000000004	S_H	1.0	n/a	n/a	1.0	1.5630000000000002	Sem/Sem_run-01/stereo_2SH56A0.wav	1.0	1	1.3130000000000002
151.732	3.849	S_U	2.0	n/a	n/a	2.0	1.4909999999999999	Sem/Sem_run-01/stereo_2SU82A0.wav	2.0	1	1.241
155.585	3.934	S_C	1.0	n/a	n/a	1.0	0.48100000000000004	Sem/Sem_run-01/ContS13.wav	1.0	1	1.2309999999999999
159.52100000000004	4.309	S_L	1.0	n/a	n/a	1.0	1.6340000000000001	Sem/Sem_run-01/stereo_2SL64A0.wav	1.0	1	1.384
163.84099999999995	4.413	S_C	1.0	n/a	n/a	1.0	0.552	Sem/Sem_run-01/ContS17.wav	1.0	1	1.302
168.261	4.2	S_U	2.0	n/a	n/a	1.0	1.2930000000000001	Sem/Sem_run-01/stereo_2SU90A0.wav	1.0	0	1.043
172.465	3.846	S_U	2.0	n/a	n/a	2.0	1.358	Sem/Sem_run-01/stereo_2SU88A0.wav	2.0	1	1.108
176.31799999999996	3.3939999999999997	S_C	1.0	n/a	n/a	n/a	n/a	Sem/Sem_run-01/ContS01.wav	n/a	0	n/a
179.72	4.013	S_C	1.0	1.0	0.556	n/a	n/a	Sem/Sem_run-01/ContS23.wav	1.0	1	0.556
183.74	4.227	S_H	1.0	n/a	n/a	1.0	1.048	Sem/Sem_run-01/stereo_1SH08A0.wav	1.0	1	0.798
