onset	duration	trial_type	correct	window1_response	window1_RT	window2_response	window2_RT	stim_file	calculated_response	calculated_accuracy	calculated_RT
1.084	4.2010000000000005	S_U	2.0	n/a	n/a	1.0	1.7480000000000002	Sem/Sem_run-02/stereo_1SU33A0.wav	1.0	0	1.4980000000000002
5.287000000000001	3.486	S_U	2.0	n/a	n/a	2.0	1.5130000000000001	Sem/Sem_run-02/stereo_2SU85A0.wav	2.0	1	1.263
8.773	3.8539999999999996	S_H	1.0	n/a	n/a	1.0	0.8190000000000001	Sem/Sem_run-02/stereo_2SH50A0.wav	1.0	1	0.5690000000000001
12.642	3.454	S_C	1.0	n/a	n/a	n/a	n/a	Sem/Sem_run-02/ContS08.wav	n/a	0	n/a
16.112000000000002	4.33	S_H	1.0	n/a	n/a	1.0	1.431	Sem/Sem_run-02/stereo_1SH10A0.wav	1.0	1	1.181
20.448	3.872	S_L	1.0	n/a	n/a	1.0	1.197	Sem/Sem_run-02/stereo_2SL61A0.wav	1.0	1	0.9470000000000001
24.335	3.885	S_L	1.0	n/a	n/a	1.0	1.228	Sem/Sem_run-02/stereo_1SL23A0.wav	1.0	1	0.978
28.221	4.2	S_U	2.0	n/a	n/a	2.0	1.6340000000000001	Sem/Sem_run-02/stereo_1SU42A0.wav	2.0	1	1.384
32.424	3.321	S_L	1.0	n/a	n/a	1.0	1.0290000000000001	Sem/Sem_run-02/stereo_1SL16A0.wav	1.0	1	0.7789999999999999
35.76	3.59	S_C	1.0	n/a	n/a	1.0	0.299	Sem/Sem_run-02/ContS26.wav	1.0	1	1.049
39.363	4.4	S_H	1.0	n/a	n/a	1.0	1.344	Sem/Sem_run-02/stereo_2SH60A0.wav	1.0	1	1.094
43.76600000000001	4.311	S_L	1.0	n/a	n/a	1.0	1.1420000000000001	Sem/Sem_run-02/stereo_2SL75A0.wav	1.0	1	0.8919999999999999
48.08600000000001	3.912	S_H	1.0	n/a	n/a	1.0	1.489	Sem/Sem_run-02/stereo_2SH59A0.wav	1.0	1	1.239
52.006	4.4	S_U	2.0	n/a	n/a	2.0	1.896	Sem/Sem_run-02/stereo_2SU84A0.wav	2.0	1	1.646
56.409	3.4210000000000003	S_U	2.0	n/a	n/a	2.0	1.619	Sem/Sem_run-02/stereo_1SU43A0.wav	2.0	1	1.369
59.845	3.8539999999999996	S_C	1.0	n/a	n/a	1.0	0.297	Sem/Sem_run-02/ContS02.wav	1.0	1	1.047
63.715	4.37	S_L	1.0	n/a	n/a	1.0	1.383	Sem/Sem_run-02/stereo_1SL19A0.wav	1.0	1	1.133
68.085	3.862	S_L	1.0	n/a	n/a	2.0	1.128	Sem/Sem_run-02/stereo_1SL18A0.wav	2.0	0	0.8779999999999999
71.954	4.462	S_C	1.0	n/a	n/a	1.0	1.3119999999999998	Sem/Sem_run-02/ContS22.wav	1.0	1	2.062
76.42399999999998	3.406	S_L	1.0	n/a	n/a	1.0	1.6059999999999999	Sem/Sem_run-02/stereo_1SL21A0.wav	1.0	1	1.356
79.844	3.355	S_U	2.0	n/a	n/a	2.0	1.679	Sem/Sem_run-02/stereo_1SU36A0.wav	2.0	1	1.429
83.213	4.324	S_C	1.0	n/a	n/a	1.0	0.846	Sem/Sem_run-02/ContS04.wav	1.0	1	1.596
87.55	4.253	S_L	1.0	n/a	n/a	1.0	1.4809999999999999	Sem/Sem_run-02/stereo_1SL24A0.wav	1.0	1	1.231
91.803	3.839	S_L	1.0	n/a	n/a	1.0	0.975	Sem/Sem_run-02/stereo_2SL70A0.wav	1.0	1	0.725
95.656	4.395	S_C	1.0	n/a	n/a	1.0	0.562	Sem/Sem_run-02/ContS14.wav	1.0	1	1.312
100.059	3.8739999999999997	S_H	1.0	n/a	n/a	1.0	1.236	Sem/Sem_run-02/stereo_1SH09A0.wav	1.0	1	0.986
103.945	3.75	S_U	2.0	n/a	n/a	1.0	1.28	Sem/Sem_run-02/stereo_1SU32A0.wav	1.0	0	1.03
107.698	3.641	S_C	1.0	n/a	n/a	1.0	0.46799999999999997	Sem/Sem_run-02/ContS34.wav	1.0	1	1.218
111.351	3.338	S_U	2.0	n/a	n/a	2.0	1.234	Sem/Sem_run-02/stereo_1SU31A0.wav	2.0	1	0.984
114.704	3.45	S_L	1.0	n/a	n/a	1.0	1.544	Sem/Sem_run-02/stereo_2SL68A0.wav	1.0	1	1.294
118.156	3.8510000000000004	S_H	1.0	n/a	n/a	1.0	1.202	Sem/Sem_run-02/stereo_1SH14A0.wav	1.0	1	0.952
122.009	3.459	S_H	1.0	n/a	n/a	1.0	1.531	Sem/Sem_run-02/stereo_1SH01A0.wav	1.0	1	1.281
125.478	3.512	S_C	1.0	n/a	n/a	1.0	0.195	Sem/Sem_run-02/ContS16.wav	1.0	1	0.9450000000000001
128.998	3.489	S_H	1.0	n/a	n/a	1.0	1.179	Sem/Sem_run-02/stereo_1SH12A0.wav	1.0	1	0.929
132.5	3.8489999999999998	S_U	2.0	n/a	n/a	1.0	1.4269999999999998	Sem/Sem_run-02/stereo_2SU86A0.wav	1.0	0	1.1769999999999998
136.35299999999998	3.46	S_L	1.0	n/a	n/a	1.0	1.453	Sem/Sem_run-02/stereo_1SL28A0.wav	1.0	1	1.203
139.82299999999998	4.53	S_C	1.0	n/a	n/a	1.0	0.322	Sem/Sem_run-02/ContS32.wav	1.0	1	1.072
144.359	4.351	S_H	1.0	n/a	n/a	1.0	1.486	Sem/Sem_run-02/stereo_2SH52A0.wav	1.0	1	1.236
148.713	3.48	S_H	1.0	n/a	n/a	1.0	1.74	Sem/Sem_run-02/stereo_2SH47A0.wav	1.0	1	1.49
152.19899999999996	3.3	S_H	1.0	n/a	n/a	1.0	1.82	Sem/Sem_run-02/stereo_2SH53A0.wav	1.0	1	1.57
155.501	3.847	S_U	2.0	n/a	n/a	1.0	1.2109999999999999	Sem/Sem_run-02/stereo_1SU39A0.wav	1.0	0	0.9610000000000001
159.35399999999996	3.923	S_C	1.0	n/a	n/a	1.0	0.515	Sem/Sem_run-02/ContS10.wav	1.0	1	1.2650000000000001
163.291	3.7510000000000003	S_U	2.0	n/a	n/a	2.0	1.36	Sem/Sem_run-02/stereo_2SU80A0.wav	2.0	1	1.11
167.043	4.2	S_L	1.0	n/a	n/a	1.0	1.3719999999999999	Sem/Sem_run-02/stereo_2SL66A0.wav	1.0	1	1.122
171.247	3.99	S_C	1.0	n/a	n/a	n/a	n/a	Sem/Sem_run-02/ContS20.wav	n/a	0	n/a
175.25	4.041	S_C	1.0	n/a	n/a	1.0	0.41	Sem/Sem_run-02/ContS28.wav	1.0	1	1.16
179.303	4.2	S_U	2.0	n/a	n/a	2.0	1.3869999999999998	Sem/Sem_run-02/stereo_2SU89A0.wav	2.0	1	1.1369999999999998
183.506	4.368	S_H	1.0	n/a	n/a	1.0	1.514	Sem/Sem_run-02/stereo_2SH46A0.wav	1.0	1	1.264
