onset	duration	trial_type	correct	window1_response	window1_RT	window2_response	window2_RT	stim_file	calculated_response	calculated_accuracy	calculated_RT
1.085	4.2010000000000005	S_U	2.0	n/a	n/a	2.0	1.618	Sem/Sem_run-02/stereo_1SU33A0.wav	2.0	1	1.368
5.287999999999999	3.486	S_U	2.0	n/a	n/a	2.0	1.52	Sem/Sem_run-02/stereo_2SU85A0.wav	2.0	1	1.27
8.774	3.8539999999999996	S_H	1.0	n/a	n/a	1.0	1.223	Sem/Sem_run-02/stereo_2SH50A0.wav	1.0	1	0.973
12.643	3.454	S_C	1.0	1.0	0.69	1.0	0.5529999999999999	Sem/Sem_run-02/ContS08.wav	1.0	1	0.69
16.113	4.33	S_H	1.0	n/a	n/a	1.0	0.81	Sem/Sem_run-02/stereo_1SH10A0.wav	1.0	1	0.56
20.449	3.872	S_L	1.0	n/a	n/a	1.0	1.785	Sem/Sem_run-02/stereo_2SL61A0.wav	1.0	1	1.535
24.336	3.885	S_L	1.0	n/a	n/a	1.0	0.973	Sem/Sem_run-02/stereo_1SL23A0.wav	1.0	1	0.723
28.222	4.2	S_U	2.0	n/a	n/a	2.0	1.0590000000000002	Sem/Sem_run-02/stereo_1SU42A0.wav	2.0	1	0.8090000000000002
32.425	3.321	S_L	1.0	n/a	n/a	1.0	1.0759999999999998	Sem/Sem_run-02/stereo_1SL16A0.wav	1.0	1	0.8259999999999998
35.761	3.59	S_C	1.0	1.0	0.597	1.0	0.42	Sem/Sem_run-02/ContS26.wav	1.0	1	0.597
39.364	4.4	S_H	1.0	n/a	n/a	2.0	2.208	Sem/Sem_run-02/stereo_2SH60A0.wav	2.0	0	1.9580000000000002
43.767	4.311	S_L	1.0	n/a	n/a	1.0	1.901	Sem/Sem_run-02/stereo_2SL75A0.wav	1.0	1	1.651
48.087	3.912	S_H	1.0	n/a	n/a	1.0	1.722	Sem/Sem_run-02/stereo_2SH59A0.wav	1.0	1	1.472
52.007	4.4	S_U	2.0	n/a	n/a	2.0	0.941	Sem/Sem_run-02/stereo_2SU84A0.wav	2.0	1	0.691
56.41	3.4210000000000003	S_U	2.0	n/a	n/a	1.0	1.837	Sem/Sem_run-02/stereo_1SU43A0.wav	1.0	0	1.587
59.846	3.8539999999999996	S_C	1.0	1.0	0.574	1.0	0.412	Sem/Sem_run-02/ContS02.wav	1.0	1	0.574
63.716	4.37	S_L	1.0	n/a	n/a	1.0	1.325	Sem/Sem_run-02/stereo_1SL19A0.wav	1.0	1	1.075
68.086	3.862	S_L	1.0	n/a	n/a	1.0	1.5830000000000002	Sem/Sem_run-02/stereo_1SL18A0.wav	1.0	1	1.3330000000000002
71.955	4.462	S_C	1.0	n/a	n/a	1.0	0.211	Sem/Sem_run-02/ContS22.wav	1.0	1	0.961
76.425	3.406	S_L	1.0	n/a	n/a	1.0	1.4680000000000002	Sem/Sem_run-02/stereo_1SL21A0.wav	1.0	1	1.2180000000000002
79.845	3.355	S_U	2.0	n/a	n/a	2.0	1.254	Sem/Sem_run-02/stereo_1SU36A0.wav	2.0	1	1.004
83.214	4.324	S_C	1.0	1.0	0.687	1.0	0.6940000000000001	Sem/Sem_run-02/ContS04.wav	1.0	1	0.687
87.551	4.253	S_L	1.0	n/a	n/a	2.0	2.263	Sem/Sem_run-02/stereo_1SL24A0.wav	2.0	0	2.013
91.804	3.839	S_L	1.0	n/a	n/a	1.0	2.162	Sem/Sem_run-02/stereo_2SL70A0.wav	1.0	1	1.912
95.657	4.395	S_C	1.0	1.0	0.6709999999999999	1.0	0.603	Sem/Sem_run-02/ContS14.wav	1.0	1	0.6709999999999999
100.06	3.8739999999999997	S_H	1.0	n/a	n/a	1.0	1.519	Sem/Sem_run-02/stereo_1SH09A0.wav	1.0	1	1.269
103.946	3.75	S_U	2.0	n/a	n/a	2.0	1.545	Sem/Sem_run-02/stereo_1SU32A0.wav	2.0	1	1.295
107.699	3.641	S_C	1.0	1.0	0.7240000000000001	1.0	0.703	Sem/Sem_run-02/ContS34.wav	1.0	1	0.7240000000000001
111.352	3.338	S_U	2.0	n/a	n/a	2.0	1.349	Sem/Sem_run-02/stereo_1SU31A0.wav	2.0	1	1.099
114.705	3.45	S_L	1.0	n/a	n/a	1.0	1.821	Sem/Sem_run-02/stereo_2SL68A0.wav	1.0	1	1.571
118.157	3.8510000000000004	S_H	1.0	n/a	n/a	1.0	1.735	Sem/Sem_run-02/stereo_1SH14A0.wav	1.0	1	1.485
122.01	3.459	S_H	1.0	n/a	n/a	1.0	1.459	Sem/Sem_run-02/stereo_1SH01A0.wav	1.0	1	1.209
125.48	3.512	S_C	1.0	1.0	0.631	1.0	0.5770000000000001	Sem/Sem_run-02/ContS16.wav	1.0	1	0.631
128.999	3.489	S_H	1.0	n/a	n/a	2.0	1.088	Sem/Sem_run-02/stereo_1SH12A0.wav	2.0	0	0.8380000000000001
132.502	3.8489999999999998	S_U	2.0	n/a	n/a	2.0	1.24	Sem/Sem_run-02/stereo_2SU86A0.wav	2.0	1	0.99
136.355	3.46	S_L	1.0	n/a	n/a	1.0	1.957	Sem/Sem_run-02/stereo_1SL28A0.wav	1.0	1	1.707
139.82399999999998	4.53	S_C	1.0	1.0	0.599	1.0	0.579	Sem/Sem_run-02/ContS32.wav	1.0	1	0.599
144.361	4.351	S_H	1.0	n/a	n/a	1.0	1.5719999999999998	Sem/Sem_run-02/stereo_2SH52A0.wav	1.0	1	1.3219999999999998
148.714	3.48	S_H	1.0	n/a	n/a	2.0	2.236	Sem/Sem_run-02/stereo_2SH47A0.wav	2.0	0	1.986
152.2	3.3	S_H	1.0	n/a	n/a	1.0	1.484	Sem/Sem_run-02/stereo_2SH53A0.wav	1.0	1	1.234
155.503	3.847	S_U	2.0	n/a	n/a	1.0	1.85	Sem/Sem_run-02/stereo_1SU39A0.wav	1.0	0	1.6
159.355	3.923	S_C	1.0	1.0	0.66	1.0	0.438	Sem/Sem_run-02/ContS10.wav	1.0	1	0.66
163.292	3.7510000000000003	S_U	2.0	n/a	n/a	1.0	1.195	Sem/Sem_run-02/stereo_2SU80A0.wav	1.0	0	0.945
167.045	4.2	S_L	1.0	n/a	n/a	2.0	1.346	Sem/Sem_run-02/stereo_2SL66A0.wav	2.0	0	1.096
171.248	3.99	S_C	1.0	n/a	n/a	1.0	0.185	Sem/Sem_run-02/ContS20.wav	1.0	1	0.935
175.25099999999995	4.041	S_C	1.0	n/a	n/a	1.0	0.107	Sem/Sem_run-02/ContS28.wav	1.0	1	0.857
179.304	4.2	S_U	2.0	n/a	n/a	2.0	1.365	Sem/Sem_run-02/stereo_2SU89A0.wav	2.0	1	1.115
183.507	4.368	S_H	1.0	n/a	n/a	1.0	1.985	Sem/Sem_run-02/stereo_2SH46A0.wav	1.0	1	1.735
