onset	duration	trial_type	correct	window1_response	window1_RT	window2_response	window2_RT	stim_file	calculated_response	calculated_accuracy	calculated_RT
1.0964	7.034	SP_W	1.0	n/a	n/a	1.0	3.986	Plaus/Plaus_run-01/stereo_PW85.wav	1.0	1	1.839
8.1359	5.641	SP_I	2.0	n/a	n/a	2.0	2.529	Plaus/Plaus_run-01/stereo_PI11.wav	2.0	1	1.6089999999999998
13.79	6.77	SP_C	1.0	n/a	n/a	1.0	0.509	Plaus/Plaus_run-01/CoM08b.wav	1.0	1	1.2590000000000001
20.5628	7.327000000000001	SP_W	1.0	n/a	n/a	2.0	3.459	Plaus/Plaus_run-01/stereo_PW72.wav	2.0	0	1.4789999999999996
27.9014	6.145	SP_C	1.0	n/a	n/a	1.0	0.585	Plaus/Plaus_run-01/CoM05d.wav	1.0	1	1.335
34.0559	5.181	SP_I	2.0	n/a	n/a	2.0	2.602	Plaus/Plaus_run-01/stereo_PI65.wav	2.0	1	1.6599999999999997
39.243	5.092	SP_S	1.0	n/a	n/a	2.0	3.136	Plaus/Plaus_run-01/stereo_PC13.wav	2.0	0	2.073
44.3468	7.355	SP_C	1.0	n/a	n/a	1.0	1.409	Plaus/Plaus_run-01/CoM06l.wav	1.0	1	2.1590000000000003
51.7032	7.47	SP_I	2.0	n/a	n/a	2.0	4.287	Plaus/Plaus_run-01/stereo_PI90.wav	2.0	1	2.116
59.1764	7.399	SP_S	1.0	n/a	n/a	1.0	4.168	Plaus/Plaus_run-01/stereo_PC35.wav	1.0	1	1.901
66.5818	5.685	SP_S	1.0	n/a	n/a	2.0	2.861	Plaus/Plaus_run-01/stereo_PC47.wav	2.0	0	1.8519999999999999
72.2704	5.669	SP_W	1.0	n/a	n/a	2.0	2.894	Plaus/Plaus_run-01/stereo_PW19.wav	2.0	0	1.888
77.9423	7.9	SP_C	1.0	n/a	n/a	1.0	0.943	Plaus/Plaus_run-01/CoM03l.wav	1.0	1	1.693
85.8483	5.145	SP_I	2.0	n/a	n/a	2.0	2.705	Plaus/Plaus_run-01/stereo_PI09.wav	2.0	1	1.6970000000000005
91.0021	6.9170000000000025	SP_W	1.0	n/a	n/a	1.0	3.5580000000000003	Plaus/Plaus_run-01/stereo_PW30.wav	1.0	1	1.4380000000000002
97.9243	5.738	SP_S	1.0	n/a	n/a	2.0	3.127	Plaus/Plaus_run-01/stereo_PC14.wav	2.0	0	1.956
103.6662	6.276	SP_W	1.0	n/a	n/a	2.0	3.23	Plaus/Plaus_run-01/stereo_PW50.wav	2.0	0	2.408
109.954	5.49	SP_C	1.0	n/a	n/a	1.0	0.4	Plaus/Plaus_run-01/CoM03d.wav	1.0	1	1.15
115.458	5.7	SP_I	2.0	n/a	n/a	2.0	2.378	Plaus/Plaus_run-01/stereo_PI67.wav	2.0	1	1.4869999999999999
121.1625	7.237	SP_S	1.0	n/a	n/a	2.0	3.91	Plaus/Plaus_run-01/stereo_PC68.wav	2.0	0	1.944
128.4022	6.49	SP_C	1.0	n/a	n/a	1.0	0.353	Plaus/Plaus_run-01/CoM03b.wav	1.0	1	1.103
134.9065	6.25	SP_W	1.0	n/a	n/a	2.0	3.168	Plaus/Plaus_run-01/stereo_PW61.wav	2.0	0	2.188
141.161	6.952999999999999	SP_I	2.0	n/a	n/a	2.0	4.1080000000000005	Plaus/Plaus_run-01/stereo_PI32.wav	2.0	1	1.9430000000000005
148.1173	7.085	SP_C	1.0	n/a	n/a	1.0	2.156	Plaus/Plaus_run-01/CoM02e.wav	1.0	1	2.906
155.2068	6.3610000000000015	SP_S	1.0	n/a	n/a	2.0	3.841	Plaus/Plaus_run-01/stereo_PC24.wav	2.0	0	1.5830000000000002
161.5781	5.1110000000000015	SP_W	1.0	n/a	n/a	2.0	2.799	Plaus/Plaus_run-01/stereo_PW53.wav	2.0	0	1.785
166.6985	6.2860000000000005	SP_I	2.0	n/a	n/a	2.0	4.3660000000000005	Plaus/Plaus_run-01/stereo_PI42.wav	2.0	1	2.170000000000001
172.9876	6.577000000000001	SP_S	1.0	n/a	n/a	2.0	2.92	Plaus/Plaus_run-01/stereo_PC57.wav	2.0	0	1.725
179.5757	5.273	SP_W	1.0	n/a	n/a	2.0	2.5660000000000003	Plaus/Plaus_run-01/stereo_PW18.wav	2.0	0	1.3990000000000002
184.8629	5.77	SP_C	1.0	n/a	n/a	1.0	1.358	Plaus/Plaus_run-01/CoM09b.wav	1.0	1	2.108
190.6348	6.731	SP_S	1.0	n/a	n/a	2.0	3.691	Plaus/Plaus_run-01/stereo_PC26.wav	2.0	0	1.5910000000000002
197.3731	7.212999999999999	SP_I	2.0	n/a	n/a	2.0	3.5660000000000003	Plaus/Plaus_run-01/stereo_PI33.wav	2.0	1	1.5830000000000002
204.595	5.181	SP_S	1.0	n/a	n/a	2.0	3.706	Plaus/Plaus_run-01/stereo_PC01.wav	2.0	0	2.765000000000001
209.7821	6.238	SP_S	1.0	n/a	n/a	1.0	3.709	Plaus/Plaus_run-01/stereo_PC36.wav	1.0	1	1.6629999999999994
216.0211	7.73	SP_C	1.0	n/a	n/a	1.0	0.247	Plaus/Plaus_run-01/CoM10e.wav	1.0	1	0.997
223.7601	6.843	SP_I	2.0	n/a	n/a	2.0	3.729	Plaus/Plaus_run-01/stereo_PI45.wav	2.0	1	1.602
230.615	6.101	SP_W	1.0	n/a	n/a	2.0	4.646	Plaus/Plaus_run-01/stereo_PW28.wav	2.0	0	2.7139999999999995
236.7206	7.419	SP_W	1.0	n/a	n/a	2.0	3.54	Plaus/Plaus_run-01/stereo_PW86.wav	2.0	0	1.5040000000000004
244.1438	6.54	SP_C	1.0	n/a	n/a	1.0	1.311	Plaus/Plaus_run-01/CoM05e.wav	1.0	1	2.061
250.6981	6.247000000000001	SP_I	2.0	n/a	n/a	2.0	3.2230000000000003	Plaus/Plaus_run-01/stereo_PI12.wav	2.0	1	2.3520000000000003
