onset	duration	trial_type	correct	window1_response	window1_RT	window2_response	window2_RT	stim_file	calculated_response	calculated_accuracy	calculated_RT
1.0915	6.895	G_F	2.0	n/a	n/a	2.0	2.9819999999999998	Gram/Gram_run-01/stereo_2MF57U2.wav	2.0	1	3.732
7.9964	7.175	G_F	2.0	n/a	n/a	2.0	2.793	Gram/Gram_run-01/stereo_1MF15U3.wav	2.0	1	3.543
15.1851	6.5070000000000014	G_G	1.0	n/a	n/a	1.0	3.24	Gram/Gram_run-01/stereo_1MF11G2.wav	1.0	1	2.06
21.7065	6.505	G_C	1.0	1.0	0.578	n/a	n/a	Gram/Gram_run-01/CoM09d.wav	1.0	1	0.578
28.2123	6.9479999999999995	G_F	2.0	n/a	n/a	2.0	4.087	Gram/Gram_run-01/stereo_2MF68U4.wav	2.0	1	3.3609999999999998
35.1675	5.541	G_P	2.0	n/a	n/a	2.0	2.8680000000000003	Gram/Gram_run-01/stereo_1MP37U3.wav	2.0	1	1.8330000000000002
40.7217	5.9479999999999995	G_G	1.0	n/a	n/a	1.0	4.574	Gram/Gram_run-01/stereo_2MF50G1.wav	1.0	1	2.479
46.6761	6.013	G_F	2.0	n/a	n/a	2.0	4.026	Gram/Gram_run-01/stereo_1MF05U1.wav	2.0	1	3.424
52.6972	7.87	G_C	1.0	n/a	n/a	1.0	0.337	Gram/Gram_run-01/CoM01l.wav	1.0	1	1.087
60.5705	6.4979999999999976	G_G	1.0	n/a	n/a	1.0	4.012	Gram/Gram_run-01/stereo_1MF23G4.wav	1.0	1	1.8309999999999995
67.0753	6.184	G_F	2.0	n/a	n/a	2.0	3.3689999999999998	Gram/Gram_run-01/stereo_2MF55U2.wav	2.0	1	4.119
73.264	6.83	G_C	1.0	n/a	n/a	1.0	0.6679999999999999	Gram/Gram_run-01/CoM10l.wav	1.0	1	1.418
80.1023	7.505	G_G	1.0	n/a	n/a	1.0	4.556	Gram/Gram_run-01/stereo_2MP96G4.wav	1.0	1	2.1610000000000005
87.6086	7.1370000000000005	G_G	1.0	n/a	n/a	2.0	4.128	Gram/Gram_run-01/stereo_1MP47G4.wav	2.0	0	1.6610000000000005
94.748	6.694	G_F	2.0	n/a	n/a	1.0	2.924	Gram/Gram_run-01/stereo_2MF61U3.wav	1.0	0	3.674
101.4529	5.39	G_C	1.0	n/a	n/a	1.0	2.312	Gram/Gram_run-01/CoM01d.wav	1.0	1	3.062
106.8569	6.5760000000000005	G_G	1.0	n/a	n/a	1.0	3.7969999999999997	Gram/Gram_run-01/stereo_1MP35G2.wav	1.0	1	2.793
113.4451	5.3389999999999995	G_F	2.0	n/a	n/a	1.0	3.943	Gram/Gram_run-01/stereo_2MF69U4.wav	1.0	0	3.2050000000000005
118.7989	7.94	G_C	1.0	n/a	n/a	1.0	0.607	Gram/Gram_run-01/CoM08l.wav	1.0	1	1.357
126.7476	6.006	G_P	2.0	n/a	n/a	2.0	3.555	Gram/Gram_run-01/stereo_1MP26U1.wav	2.0	1	1.5790000000000002
132.7683	8.422	G_F	2.0	n/a	n/a	1.0	3.76	Gram/Gram_run-01/stereo_1MF06U1.wav	1.0	0	3.164999999999999
141.1919	7.885	G_P	2.0	n/a	n/a	1.0	3.0980000000000003	Gram/Gram_run-01/stereo_2MP81U2.wav	1.0	0	2.213
149.082	6.1270000000000024	G_G	1.0	n/a	n/a	1.0	3.718	Gram/Gram_run-01/stereo_2MP83G2.wav	1.0	1	2.6580000000000004
155.2198	5.765	G_C	1.0	n/a	n/a	1.0	2.509	Gram/Gram_run-01/CoM02b.wav	1.0	1	3.259
160.9908	6.706	G_P	2.0	n/a	n/a	2.0	4.7330000000000005	Gram/Gram_run-01/stereo_2MP93U4.wav	2.0	1	2.333000000000001
167.7098	6.61	G_P	2.0	n/a	n/a	1.0	3.983	Gram/Gram_run-01/stereo_1MP28U1.wav	1.0	0	1.8680000000000008
174.3313	6.63	G_C	1.0	n/a	n/a	1.0	0.163	Gram/Gram_run-01/CoM04b.wav	1.0	1	0.913
180.9695	5.665	G_P	2.0	n/a	n/a	1.0	3.885	Gram/Gram_run-01/stereo_1MP27U1.wav	1.0	0	1.883
186.6404	7.55	G_G	1.0	n/a	n/a	1.0	4.119	Gram/Gram_run-01/stereo_2MP77G1.wav	1.0	1	2.0199999999999996
194.1961	6.51	G_C	1.0	n/a	n/a	1.0	0.973	Gram/Gram_run-01/CoM03e.wav	1.0	1	1.7229999999999999
200.7177	6.98	G_P	2.0	n/a	n/a	2.0	4.33	Gram/Gram_run-01/stereo_2MP92U4.wav	2.0	1	1.9809999999999999
207.7062	7.047999999999999	G_G	1.0	n/a	n/a	2.0	3.678	Gram/Gram_run-01/stereo_1MF12G2.wav	2.0	0	2.644
214.7613	5.574	G_F	2.0	n/a	n/a	1.0	3.785	Gram/Gram_run-01/stereo_1MF04U1.wav	1.0	0	3.197
220.3488	5.67	G_C	1.0	n/a	n/a	1.0	1.023	Gram/Gram_run-01/CoM07d.wav	1.0	1	1.773
226.0205	6.6160000000000005	G_P	2.0	n/a	n/a	1.0	2.638	Gram/Gram_run-01/stereo_1MP39U3.wav	1.0	0	1.634
232.6421	5.695	G_P	2.0	n/a	n/a	1.0	3.0060000000000002	Gram/Gram_run-01/stereo_2MP82U2.wav	1.0	0	2.085
238.3464	6.6270000000000024	G_F	2.0	n/a	n/a	2.0	2.873	Gram/Gram_run-01/stereo_1MF13U3.wav	2.0	1	3.623
244.9846	7.145	G_C	1.0	n/a	n/a	1.0	0.426	Gram/Gram_run-01/CoM08e.wav	1.0	1	1.176
252.1398	6.805	G_G	1.0	n/a	n/a	2.0	3.826	Gram/Gram_run-01/stereo_1MP41G3.wav	2.0	0	2.52
258.9458	7.519	G_P	2.0	n/a	n/a	1.0	3.714	Gram/Gram_run-01/stereo_1MP38U3.wav	1.0	0	2.4749999999999996
