onset	duration	trial_type	correct	window1_response	window1_RT	window2_response	window2_RT	stim_file	calculated_response	calculated_accuracy	calculated_RT
1.0964	7.034	SP_W	1.0	n/a	n/a	1.0	4.2860000000000005	Plaus/Plaus_run-01/stereo_PW85.wav	1.0	1	2.139
8.1359	5.641	SP_I	2.0	n/a	n/a	2.0	2.551	Plaus/Plaus_run-01/stereo_PI11.wav	2.0	1	1.631
13.79	6.77	SP_C	1.0	n/a	n/a	1.0	0.28600000000000003	Plaus/Plaus_run-01/CoM08b.wav	1.0	1	1.036
20.5628	7.327000000000001	SP_W	1.0	n/a	n/a	1.0	3.889	Plaus/Plaus_run-01/stereo_PW72.wav	1.0	1	1.909
27.9014	6.145	SP_C	1.0	n/a	n/a	1.0	0.255	Plaus/Plaus_run-01/CoM05d.wav	1.0	1	1.005
34.0559	5.181	SP_I	2.0	n/a	n/a	2.0	2.752	Plaus/Plaus_run-01/stereo_PI65.wav	2.0	1	1.81
39.243	5.092	SP_S	1.0	n/a	n/a	1.0	1.894	Plaus/Plaus_run-01/stereo_PC13.wav	1.0	1	0.831
44.3468	7.355	SP_C	1.0	n/a	n/a	1.0	0.198	Plaus/Plaus_run-01/CoM06l.wav	1.0	1	0.948
51.7032	7.47	SP_I	2.0	n/a	n/a	2.0	3.985	Plaus/Plaus_run-01/stereo_PI90.wav	2.0	1	1.814
59.1764	7.399	SP_S	1.0	n/a	n/a	1.0	3.768	Plaus/Plaus_run-01/stereo_PC35.wav	1.0	1	1.5010000000000003
66.5818	5.685	SP_S	1.0	n/a	n/a	2.0	2.622	Plaus/Plaus_run-01/stereo_PC47.wav	2.0	0	1.6129999999999998
72.2704	5.669	SP_W	1.0	n/a	n/a	2.0	2.642	Plaus/Plaus_run-01/stereo_PW19.wav	2.0	0	1.636
77.9423	7.9	SP_C	1.0	n/a	n/a	1.0	0.309	Plaus/Plaus_run-01/CoM03l.wav	1.0	1	1.0590000000000002
85.8483	5.145	SP_I	2.0	n/a	n/a	2.0	2.506	Plaus/Plaus_run-01/stereo_PI09.wav	2.0	1	1.4980000000000002
91.0021	6.9170000000000025	SP_W	1.0	n/a	n/a	1.0	3.875	Plaus/Plaus_run-01/stereo_PW30.wav	1.0	1	1.755
97.9243	5.738	SP_S	1.0	n/a	n/a	1.0	2.9330000000000003	Plaus/Plaus_run-01/stereo_PC14.wav	1.0	1	1.7620000000000002
103.6662	6.276	SP_W	1.0	n/a	n/a	1.0	2.957	Plaus/Plaus_run-01/stereo_PW50.wav	1.0	1	2.135
109.954	5.49	SP_C	1.0	n/a	n/a	1.0	0.34600000000000003	Plaus/Plaus_run-01/CoM03d.wav	1.0	1	1.0959999999999999
115.458	5.7	SP_I	2.0	n/a	n/a	2.0	2.454	Plaus/Plaus_run-01/stereo_PI67.wav	2.0	1	1.5630000000000002
121.1625	7.237	SP_S	1.0	n/a	n/a	1.0	3.394	Plaus/Plaus_run-01/stereo_PC68.wav	1.0	1	1.4279999999999995
128.4022	6.49	SP_C	1.0	n/a	n/a	1.0	0.396	Plaus/Plaus_run-01/CoM03b.wav	1.0	1	1.146
134.9065	6.25	SP_W	1.0	n/a	n/a	1.0	2.615	Plaus/Plaus_run-01/stereo_PW61.wav	1.0	1	1.6350000000000002
141.161	6.952999999999999	SP_I	2.0	n/a	n/a	2.0	4.301	Plaus/Plaus_run-01/stereo_PI32.wav	2.0	1	2.136
148.1173	7.085	SP_C	1.0	n/a	n/a	1.0	0.406	Plaus/Plaus_run-01/CoM02e.wav	1.0	1	1.156
155.2068	6.3610000000000015	SP_S	1.0	n/a	n/a	1.0	3.9	Plaus/Plaus_run-01/stereo_PC24.wav	1.0	1	1.642
161.5781	5.1110000000000015	SP_W	1.0	n/a	n/a	2.0	2.8710000000000004	Plaus/Plaus_run-01/stereo_PW53.wav	2.0	0	1.8570000000000009
166.6985	6.2860000000000005	SP_I	2.0	n/a	n/a	2.0	3.673	Plaus/Plaus_run-01/stereo_PI42.wav	2.0	1	1.4770000000000003
172.9876	6.577000000000001	SP_S	1.0	n/a	n/a	1.0	2.783	Plaus/Plaus_run-01/stereo_PC57.wav	1.0	1	1.588
179.5757	5.273	SP_W	1.0	n/a	n/a	1.0	2.767	Plaus/Plaus_run-01/stereo_PW18.wav	1.0	1	1.6
184.8629	5.77	SP_C	1.0	n/a	n/a	1.0	0.589	Plaus/Plaus_run-01/CoM09b.wav	1.0	1	1.339
190.6348	6.731	SP_S	1.0	n/a	n/a	1.0	3.853	Plaus/Plaus_run-01/stereo_PC26.wav	1.0	1	1.753
197.3731	7.212999999999999	SP_I	2.0	n/a	n/a	1.0	3.959	Plaus/Plaus_run-01/stereo_PI33.wav	1.0	0	1.9759999999999995
204.595	5.181	SP_S	1.0	n/a	n/a	1.0	2.787	Plaus/Plaus_run-01/stereo_PC01.wav	1.0	1	1.8459999999999999
209.7821	6.238	SP_S	1.0	n/a	n/a	2.0	3.71	Plaus/Plaus_run-01/stereo_PC36.wav	2.0	0	1.6639999999999997
216.0211	7.73	SP_C	1.0	n/a	n/a	1.0	0.276	Plaus/Plaus_run-01/CoM10e.wav	1.0	1	1.026
223.7601	6.843	SP_I	2.0	n/a	n/a	2.0	3.08	Plaus/Plaus_run-01/stereo_PI45.wav	2.0	1	0.9530000000000004
230.615	6.101	SP_W	1.0	n/a	n/a	1.0	4.208	Plaus/Plaus_run-01/stereo_PW28.wav	1.0	1	2.276
236.7206	7.419	SP_W	1.0	n/a	n/a	1.0	4.025	Plaus/Plaus_run-01/stereo_PW86.wav	1.0	1	1.9890000000000008
244.1438	6.54	SP_C	1.0	n/a	n/a	1.0	0.723	Plaus/Plaus_run-01/CoM05e.wav	1.0	1	1.473
250.6981	6.247000000000001	SP_I	2.0	n/a	n/a	2.0	2.641	Plaus/Plaus_run-01/stereo_PI12.wav	2.0	1	1.77
