onset	duration	trial_type	correct	window1_response	window1_RT	window2_response	window2_RT	stim_file	calculated_response	calculated_accuracy	calculated_RT
1.0964	7.034	SP_W	1.0	n/a	n/a	1.0	4.462	Plaus/Plaus_run-01/stereo_PW85.wav	1.0	1	2.3149999999999995
8.1359	5.641	SP_I	2.0	n/a	n/a	2.0	2.636	Plaus/Plaus_run-01/stereo_PI11.wav	2.0	1	1.716
13.79	6.77	SP_C	1.0	1.0	0.5489999999999999	1.0	1.2	Plaus/Plaus_run-01/CoM08b.wav	1.0	1	0.5489999999999999
20.5628	7.327000000000001	SP_W	1.0	n/a	n/a	1.0	3.477	Plaus/Plaus_run-01/stereo_PW72.wav	1.0	1	1.497
27.9014	6.145	SP_C	1.0	1.0	0.563	1.0	1.168	Plaus/Plaus_run-01/CoM05d.wav	1.0	1	0.563
34.0559	5.181	SP_I	2.0	n/a	n/a	2.0	2.877	Plaus/Plaus_run-01/stereo_PI65.wav	2.0	1	1.935
39.243	5.092	SP_S	1.0	n/a	n/a	1.0	2.929	Plaus/Plaus_run-01/stereo_PC13.wav	1.0	1	1.866
44.3468	7.355	SP_C	1.0	n/a	n/a	1.0	0.257	Plaus/Plaus_run-01/CoM06l.wav	1.0	1	1.007
51.7032	7.47	SP_I	2.0	n/a	n/a	2.0	4.103	Plaus/Plaus_run-01/stereo_PI90.wav	2.0	1	1.932
59.1764	7.399	SP_S	1.0	n/a	n/a	1.0	4.1960000000000015	Plaus/Plaus_run-01/stereo_PC35.wav	1.0	1	1.9290000000000016
66.5818	5.685	SP_S	1.0	n/a	n/a	1.0	3.072	Plaus/Plaus_run-01/stereo_PC47.wav	1.0	1	2.063
72.2704	5.669	SP_W	1.0	n/a	n/a	2.0	2.809	Plaus/Plaus_run-01/stereo_PW19.wav	2.0	0	1.803
77.9423	7.9	SP_C	1.0	1.0	0.52	1.0	1.018	Plaus/Plaus_run-01/CoM03l.wav	1.0	1	0.52
85.8483	5.145	SP_I	2.0	n/a	n/a	2.0	2.501	Plaus/Plaus_run-01/stereo_PI09.wav	2.0	1	1.493
91.0021	6.9170000000000025	SP_W	1.0	n/a	n/a	1.0	3.999	Plaus/Plaus_run-01/stereo_PW30.wav	1.0	1	1.879
97.9243	5.738	SP_S	1.0	n/a	n/a	2.0	3.214	Plaus/Plaus_run-01/stereo_PC14.wav	2.0	0	2.043
103.6662	6.276	SP_W	1.0	n/a	n/a	1.0	3.129	Plaus/Plaus_run-01/stereo_PW50.wav	1.0	1	2.3069999999999995
109.954	5.49	SP_C	1.0	1.0	0.622	1.0	1.159	Plaus/Plaus_run-01/CoM03d.wav	1.0	1	0.622
115.458	5.7	SP_I	2.0	n/a	n/a	2.0	2.5780000000000003	Plaus/Plaus_run-01/stereo_PI67.wav	2.0	1	1.6870000000000005
121.1625	7.237	SP_S	1.0	n/a	n/a	1.0	3.1710000000000003	Plaus/Plaus_run-01/stereo_PC68.wav	1.0	1	1.205
128.4022	6.49	SP_C	1.0	1.0	0.441	1.0	1.039	Plaus/Plaus_run-01/CoM03b.wav	1.0	1	0.441
134.9065	6.25	SP_W	1.0	n/a	n/a	1.0	2.889	Plaus/Plaus_run-01/stereo_PW61.wav	1.0	1	1.909
141.161	6.952999999999999	SP_I	2.0	n/a	n/a	2.0	3.635	Plaus/Plaus_run-01/stereo_PI32.wav	2.0	1	1.4699999999999998
148.1173	7.085	SP_C	1.0	1.0	0.626	1.0	0.693	Plaus/Plaus_run-01/CoM02e.wav	1.0	1	0.626
155.2068	6.3610000000000015	SP_S	1.0	n/a	n/a	1.0	3.365	Plaus/Plaus_run-01/stereo_PC24.wav	1.0	1	1.1070000000000002
161.5781	5.1110000000000015	SP_W	1.0	n/a	n/a	1.0	2.573	Plaus/Plaus_run-01/stereo_PW53.wav	1.0	1	1.5590000000000002
166.6985	6.2860000000000005	SP_I	2.0	n/a	n/a	2.0	4.049	Plaus/Plaus_run-01/stereo_PI42.wav	2.0	1	1.853
172.9876	6.577000000000001	SP_S	1.0	n/a	n/a	1.0	2.9130000000000003	Plaus/Plaus_run-01/stereo_PC57.wav	1.0	1	1.7180000000000002
179.5757	5.273	SP_W	1.0	n/a	n/a	2.0	3.369	Plaus/Plaus_run-01/stereo_PW18.wav	2.0	0	2.202
184.8629	5.77	SP_C	1.0	1.0	0.632	1.0	1.099	Plaus/Plaus_run-01/CoM09b.wav	1.0	1	0.632
190.6348	6.731	SP_S	1.0	n/a	n/a	1.0	4.303	Plaus/Plaus_run-01/stereo_PC26.wav	1.0	1	2.2030000000000003
197.3731	7.212999999999999	SP_I	2.0	n/a	n/a	2.0	3.701	Plaus/Plaus_run-01/stereo_PI33.wav	2.0	1	1.7180000000000002
204.595	5.181	SP_S	1.0	n/a	n/a	2.0	2.839	Plaus/Plaus_run-01/stereo_PC01.wav	2.0	0	1.898
209.7821	6.238	SP_S	1.0	n/a	n/a	2.0	2.7960000000000003	Plaus/Plaus_run-01/stereo_PC36.wav	2.0	0	0.75
216.0211	7.73	SP_C	1.0	1.0	0.5870000000000001	1.0	1.036	Plaus/Plaus_run-01/CoM10e.wav	1.0	1	0.5870000000000001
223.7601	6.843	SP_I	2.0	n/a	n/a	2.0	4.04	Plaus/Plaus_run-01/stereo_PI45.wav	2.0	1	1.9130000000000005
230.615	6.101	SP_W	1.0	n/a	n/a	1.0	2.957	Plaus/Plaus_run-01/stereo_PW28.wav	1.0	1	1.0249999999999997
236.7206	7.419	SP_W	1.0	n/a	n/a	2.0	3.963	Plaus/Plaus_run-01/stereo_PW86.wav	2.0	0	1.9270000000000005
244.1438	6.54	SP_C	1.0	1.0	0.47	1.0	0.889	Plaus/Plaus_run-01/CoM05e.wav	1.0	1	0.47
250.6981	6.247000000000001	SP_I	2.0	n/a	n/a	2.0	3.002	Plaus/Plaus_run-01/stereo_PI12.wav	2.0	1	2.131
