onset	duration	trial_type	correct	window1_response	window1_RT	window2_response	window2_RT	stim_file	calculated_response	calculated_accuracy	calculated_RT
1.0918	4.2	S_U	2.0	n/a	n/a	2.0	1.7590000000000001	Sem/Sem_run-01/stereo_1SU41A0.wav	2.0	1	1.509
5.2953	3.596	S_C	1.0	n/a	n/a	1.0	0.13	Sem/Sem_run-01/ContS29.wav	1.0	1	0.88
8.898	3.425	S_U	2.0	n/a	n/a	2.0	1.396	Sem/Sem_run-01/stereo_2SU87A0.wav	2.0	1	1.146
12.3338	3.933	S_H	1.0	n/a	n/a	1.0	1.1420000000000001	Sem/Sem_run-01/stereo_1SH13A0.wav	1.0	1	0.8919999999999999
16.2699	4.323	S_H	1.0	n/a	n/a	1.0	1.511	Sem/Sem_run-01/stereo_1SH05A0.wav	1.0	1	1.261
20.6064	4.073	S_C	1.0	n/a	n/a	1.0	0.09300000000000001	Sem/Sem_run-01/ContS31.wav	1.0	1	0.843
24.6927	3.869	S_L	1.0	n/a	n/a	1.0	1.412	Sem/Sem_run-01/stereo_2SL63A0.wav	1.0	1	1.162
28.5634	3.75	S_L	1.0	n/a	n/a	1.0	1.504	Sem/Sem_run-01/stereo_1SL29A0.wav	1.0	1	1.254
32.3161	4.3660000000000005	S_U	2.0	n/a	n/a	2.0	1.4609999999999999	Sem/Sem_run-01/stereo_2SU78A0.wav	2.0	1	1.211
36.6859	3.3	S_L	1.0	n/a	n/a	1.0	1.276	Sem/Sem_run-01/stereo_1SL17A0.wav	1.0	1	1.026
39.9885	3.884	S_C	1.0	n/a	n/a	1.0	0.037000000000000005	Sem/Sem_run-01/ContS05.wav	1.0	1	0.787
43.8755	4.371	S_H	1.0	n/a	n/a	1.0	1.716	Sem/Sem_run-01/stereo_2SH58A0.wav	1.0	1	1.466
48.2606	4.329	S_L	1.0	n/a	n/a	1.0	1.063	Sem/Sem_run-01/stereo_2SL72A0.wav	1.0	1	0.813
52.5971	3.94	S_H	1.0	n/a	n/a	1.0	1.443	Sem/Sem_run-01/stereo_2SH57A0.wav	1.0	1	1.193
56.55	4.2	S_U	2.0	n/a	n/a	2.0	2.033	Sem/Sem_run-01/stereo_2SU83A0.wav	2.0	1	1.783
60.753	3.474	S_C	1.0	n/a	n/a	1.0	0.096	Sem/Sem_run-01/ContS11.wav	1.0	1	0.846
64.2389	4.271	S_L	1.0	n/a	n/a	1.0	1.393	Sem/Sem_run-01/stereo_1SL26A0.wav	1.0	1	1.143
68.5248	3.91	S_L	1.0	n/a	n/a	1.0	1.3130000000000002	Sem/Sem_run-01/stereo_1SL25A0.wav	1.0	1	1.0630000000000002
72.4443	4.479	S_C	1.0	n/a	n/a	1.0	0.036000000000000004	Sem/Sem_run-01/ContS25.wav	1.0	1	0.7859999999999999
76.9309	3.378	S_U	2.0	n/a	n/a	2.0	2.037	Sem/Sem_run-01/stereo_2SU81A0.wav	2.0	1	1.787
80.3167	3.42	S_L	1.0	n/a	n/a	1.0	1.304	Sem/Sem_run-01/stereo_1SL27A0.wav	1.0	1	1.054
83.7479	4.3439999999999985	S_L	1.0	n/a	n/a	1.0	1.591	Sem/Sem_run-01/stereo_1SL30A0.wav	1.0	1	1.341
88.1008	3.909	S_L	1.0	n/a	n/a	1.0	1.749	Sem/Sem_run-01/stereo_2SL71A0.wav	1.0	1	1.499
92.0205	3.867	S_H	1.0	n/a	n/a	1.0	1.094	Sem/Sem_run-01/stereo_1SH04A0.wav	1.0	1	0.8440000000000001
95.8902	3.828	S_U	2.0	n/a	n/a	2.0	1.69	Sem/Sem_run-01/stereo_1SU37A0.wav	2.0	1	1.44
99.7264	4.565	S_C	1.0	n/a	n/a	1.0	0.021	Sem/Sem_run-01/ContS35.wav	1.0	1	0.7709999999999999
104.2964	3.3	S_U	2.0	n/a	n/a	2.0	2.002	Sem/Sem_run-01/stereo_1SU35A0.wav	2.0	1	1.7519999999999998
107.5986	3.477	S_L	1.0	n/a	n/a	1.0	1.348	Sem/Sem_run-01/stereo_2SL65A0.wav	1.0	1	1.098
111.0845	3.83	S_H	1.0	n/a	n/a	1.0	1.584	Sem/Sem_run-01/stereo_1SH07A0.wav	1.0	1	1.334
114.9207	4.3439999999999985	S_C	1.0	1.0	0.665	n/a	n/a	Sem/Sem_run-01/ContS07.wav	1.0	1	0.665
119.2738	3.5	S_H	1.0	n/a	n/a	1.0	1.3359999999999999	Sem/Sem_run-01/stereo_1SH03A0.wav	1.0	1	1.086
122.7765	3.919	S_U	2.0	n/a	n/a	1.0	1.4280000000000002	Sem/Sem_run-01/stereo_1SU45A0.wav	1.0	0	1.1780000000000002
126.697	3.5	S_H	1.0	n/a	n/a	1.0	1.256	Sem/Sem_run-01/stereo_1SH06A0.wav	1.0	1	1.006
130.1996	3.392	S_L	1.0	n/a	n/a	1.0	1.64	Sem/Sem_run-01/stereo_2SL62A0.wav	1.0	1	1.39
133.6021	3.54	S_C	1.0	n/a	n/a	1.0	0.059000000000000004	Sem/Sem_run-01/ContS19.wav	1.0	1	0.8089999999999999
137.1547	4.4	S_H	1.0	n/a	n/a	1.0	1.381	Sem/Sem_run-01/stereo_1SH15A0.wav	1.0	1	1.131
141.5578	3.342	S_H	1.0	n/a	n/a	1.0	1.4180000000000001	Sem/Sem_run-01/stereo_1SH11A0.wav	1.0	1	1.168
144.9103	3.385	S_U	2.0	n/a	n/a	2.0	1.672	Sem/Sem_run-01/stereo_1SU44A0.wav	2.0	1	1.422
148.2972	3.4160000000000004	S_H	1.0	n/a	n/a	1.0	1.743	Sem/Sem_run-01/stereo_2SH56A0.wav	1.0	1	1.493
151.7164	3.849	S_U	2.0	n/a	n/a	2.0	2.069	Sem/Sem_run-01/stereo_2SU82A0.wav	2.0	1	1.819
155.5691	3.934	S_C	1.0	n/a	n/a	1.0	0.055999999999999994	Sem/Sem_run-01/ContS13.wav	1.0	1	0.8059999999999999
159.506	4.309	S_L	1.0	n/a	n/a	1.0	1.37	Sem/Sem_run-01/stereo_2SL64A0.wav	1.0	1	1.12
163.8257	4.413	S_C	1.0	n/a	n/a	1.0	0.11599999999999999	Sem/Sem_run-01/ContS17.wav	1.0	1	0.866
168.2456	4.2	S_U	2.0	n/a	n/a	2.0	1.669	Sem/Sem_run-01/stereo_2SU90A0.wav	2.0	1	1.419
172.4489	3.846	S_U	2.0	n/a	n/a	2.0	1.536	Sem/Sem_run-01/stereo_2SU88A0.wav	2.0	1	1.286
176.3017	3.3939999999999997	S_C	1.0	n/a	n/a	1.0	0.102	Sem/Sem_run-01/ContS01.wav	1.0	1	0.852
179.7041	4.013	S_C	1.0	n/a	n/a	1.0	0.065	Sem/Sem_run-01/ContS23.wav	1.0	1	0.815
183.7237	4.227	S_H	1.0	n/a	n/a	1.0	1.374	Sem/Sem_run-01/stereo_1SH08A0.wav	1.0	1	1.124
