onset	duration	trial_type	correct	window1_response	window1_RT	window2_response	window2_RT	stim_file	calculated_response	calculated_accuracy	calculated_RT
1.0924	3.5	P_R	1.0	n/a	n/a	1.0	1.2830000000000001	Phon/Phon_run-02/stereo_PR20.wav	1.0	1	1.033
4.595	4.235	P_O	1.0	n/a	n/a	1.0	1.415	Phon/Phon_run-02/PC034.wav	1.0	1	1.165
8.8325	3.375	P_R	1.0	n/a	n/a	1.0	1.364	Phon/Phon_run-02/stereo_PR13.wav	1.0	1	1.114
12.2183	3.474	P_C	1.0	n/a	n/a	1.0	0.205	Phon/Phon_run-02/ContS12.wav	1.0	1	0.955
15.7041	3.875	P_U	2.0	n/a	n/a	2.0	1.1520000000000001	Phon/Phon_run-02/PM025.wav	2.0	1	0.9019999999999999
19.5903	3.726	P_R	1.0	n/a	n/a	1.0	1.2590000000000001	Phon/Phon_run-02/stereo_PR22.wav	1.0	1	1.009
23.3263	3.451	P_O	1.0	n/a	n/a	2.0	1.2009999999999998	Phon/Phon_run-02/PC014.wav	2.0	0	0.9509999999999998
26.7799	3.779	P_C	1.0	1.0	0.701	n/a	n/a	Phon/Phon_run-02/ContS02.wav	1.0	1	0.701
30.566	3.821	P_U	2.0	n/a	n/a	2.0	1.9269999999999998	Phon/Phon_run-02/stereo_PU18.wav	2.0	1	1.677
34.402	3.49	P_U	2.0	n/a	n/a	2.0	1.7930000000000001	Phon/Phon_run-02/stereo_PU12.wav	2.0	1	1.543
37.9046	4.38	P_C	1.0	1.0	0.726	n/a	n/a	Phon/Phon_run-02/ContS32.wav	1.0	1	0.726
42.291000000000004	4.0969999999999995	P_R	1.0	n/a	n/a	1.0	1.329	Phon/Phon_run-02/stereo_PR16.wav	1.0	1	1.079
46.394	3.5	P_O	1.0	n/a	n/a	2.0	1.6980000000000002	Phon/Phon_run-02/PC022.wav	2.0	0	1.4480000000000002
49.8966	4.0760000000000005	P_R	1.0	n/a	n/a	1.0	1.209	Phon/Phon_run-02/stereo_PR08.wav	1.0	1	0.9590000000000001
53.983000000000004	3.5	P_O	1.0	n/a	n/a	1.0	1.423	Phon/Phon_run-02/PC028.wav	1.0	1	1.173
57.4856	3.5	P_U	2.0	n/a	n/a	2.0	1.68	Phon/Phon_run-02/stereo_PU27.wav	2.0	1	1.43
60.9881	3.819	P_C	1.0	1.0	0.647	n/a	n/a	Phon/Phon_run-02/ContS06.wav	1.0	1	0.647
64.8086	4.25	P_O	1.0	n/a	n/a	1.0	1.2570000000000001	Phon/Phon_run-02/PC031.wav	1.0	1	1.007
69.062	3.662	P_C	1.0	1.0	0.7020000000000001	n/a	n/a	Phon/Phon_run-02/ContS36.wav	1.0	1	0.7020000000000001
72.7312	3.823	P_O	1.0	n/a	n/a	1.0	1.426	Phon/Phon_run-02/PC023.wav	1.0	1	1.176
76.5674	4.323	P_C	1.0	n/a	n/a	1.0	0.41	Phon/Phon_run-02/ContS24.wav	1.0	1	1.16
80.9038	3.865	P_U	2.0	n/a	n/a	2.0	1.337	Phon/Phon_run-02/PM004.wav	2.0	1	1.087
84.7733	3.875	P_O	1.0	n/a	n/a	1.0	1.084	Phon/Phon_run-02/PC007.wav	1.0	1	0.8340000000000001
88.6594	4.25	P_U	2.0	n/a	n/a	1.0	1.7269999999999999	Phon/Phon_run-02/PM011.wav	1.0	0	1.477
92.9126	4.362	P_C	1.0	n/a	n/a	1.0	0.004	Phon/Phon_run-02/ContS30.wav	1.0	1	0.754
97.2825	3.875	P_O	1.0	n/a	n/a	1.0	1.775	Phon/Phon_run-02/PC030.wav	1.0	1	1.525
101.1687	3.3360000000000003	P_R	1.0	n/a	n/a	1.0	1.8880000000000001	Phon/Phon_run-02/stereo_PR05.wav	1.0	1	1.638
104.5077	4.113	P_U	2.0	n/a	n/a	2.0	1.7690000000000001	Phon/Phon_run-02/stereo_PU01.wav	2.0	1	1.519
108.6273	4.1739999999999995	P_U	2.0	n/a	n/a	2.0	2.079	Phon/Phon_run-02/PM029.wav	2.0	1	1.8290000000000002
112.8137	3.4539999999999997	P_C	1.0	n/a	n/a	1.0	0.21	Phon/Phon_run-02/ContS08.wav	1.0	1	0.96
116.2828	3.446	P_R	1.0	n/a	n/a	1.0	1.6840000000000002	Phon/Phon_run-02/stereo_PR30.wav	1.0	1	1.4340000000000002
119.7352	3.85	P_R	1.0	n/a	n/a	1.0	1.364	Phon/Phon_run-02/stereo_PR07.wav	1.0	1	1.114
123.588	3.438	P_U	2.0	n/a	n/a	2.0	1.755	Phon/Phon_run-02/stereo_PU02.wav	2.0	1	1.505
127.0406	3.915	P_C	1.0	n/a	n/a	1.0	0.07200000000000001	Phon/Phon_run-02/ContS20.wav	1.0	1	0.8220000000000001
130.9601	3.487	P_U	2.0	n/a	n/a	2.0	1.423	Phon/Phon_run-02/PM021.wav	2.0	1	1.173
134.46200000000002	3.965	P_C	1.0	n/a	n/a	1.0	0.26	Phon/Phon_run-02/ContS26.wav	1.0	1	1.01
138.4315	3.792	P_R	1.0	n/a	n/a	1.0	1.3769999999999998	Phon/Phon_run-02/stereo_PR31.wav	1.0	1	1.1269999999999998
142.2343	4.135	P_O	1.0	n/a	n/a	1.0	1.673	Phon/Phon_run-02/PC024.wav	1.0	1	1.423
146.3717	3.875	P_U	2.0	n/a	n/a	2.0	1.6740000000000002	Phon/Phon_run-02/PM010.wav	2.0	1	1.4240000000000002
150.2579	3.875	P_O	1.0	n/a	n/a	2.0	1.524	Phon/Phon_run-02/PC015.wav	2.0	0	1.274
154.144	4.245	P_C	1.0	n/a	n/a	1.0	0.048	Phon/Phon_run-02/ContS14.wav	1.0	1	0.798
158.3971	3.854	P_R	1.0	n/a	n/a	2.0	1.347	Phon/Phon_run-02/stereo_PR14.wav	2.0	0	1.097
162.2662	4.239	P_O	1.0	n/a	n/a	1.0	1.36	Phon/Phon_run-02/PC008.wav	1.0	1	1.11
166.5192	4.25	P_U	2.0	n/a	n/a	2.0	1.337	Phon/Phon_run-02/stereo_PU11.wav	2.0	1	1.087
170.7726	3.523	P_C	1.0	n/a	n/a	1.0	0.049	Phon/Phon_run-02/ContS18.wav	1.0	1	0.799
174.3085	3.429	P_O	1.0	n/a	n/a	1.0	1.297	Phon/Phon_run-02/PC006.wav	1.0	1	1.047
177.7443	4.18	P_R	1.0	n/a	n/a	1.0	1.829	Phon/Phon_run-02/stereo_PR32.wav	1.0	1	1.579
181.9307	4.104	P_R	1.0	n/a	n/a	1.0	1.767	Phon/Phon_run-02/stereo_PR24.wav	1.0	1	1.517
