onset	duration	trial_type	correct	window1_response	window1_RT	window2_response	window2_RT	stim_file	calculated_response	calculated_accuracy	calculated_RT
1.0934	7.632999999999999	G_P	2.0	n/a	n/a	2.0	3.839	Gram/Gram_run-02/stereo_1MP45U4.wav	2.0	1	1.7079999999999997
8.7323	7.315	G_F	2.0	n/a	n/a	2.0	4.909	Gram/Gram_run-02/stereo_1MF20U4.wav	2.0	1	4.199
16.0543	6.283	G_P	2.0	n/a	n/a	2.0	3.075	Gram/Gram_run-02/stereo_1MP34U2.wav	2.0	1	1.983
22.3421	6.195	G_C	1.0	n/a	n/a	1.0	0.237	Gram/Gram_run-02/CoM06d.wav	1.0	1	0.987
28.5465	6.221	G_G	1.0	n/a	n/a	1.0	3.454	Gram/Gram_run-02/stereo_1MF02G1.wav	1.0	1	1.4140000000000001
34.769	5.801	G_F	2.0	n/a	n/a	2.0	1.2	Gram/Gram_run-02/stereo_2MF64U3.wav	2.0	1	1.95
40.5743	6.78	G_C	1.0	1.0	0.723	1.0	1.787	Gram/Gram_run-02/CoM07l.wav	1.0	1	0.723
47.3625	6.084	G_F	2.0	n/a	n/a	2.0	2.603	Gram/Gram_run-02/stereo_2MF56U2.wav	2.0	1	3.353
53.4512	7.5470000000000015	G_F	2.0	n/a	n/a	2.0	3.675	Gram/Gram_run-02/stereo_1MF21U4.wav	2.0	1	2.9239999999999995
61.0065	6.482	G_G	1.0	n/a	n/a	1.0	4.663	Gram/Gram_run-02/stereo_1MF24G4.wav	1.0	1	2.3020000000000005
67.4946	6.7810000000000015	G_P	2.0	n/a	n/a	2.0	4.518	Gram/Gram_run-02/stereo_2MP76U1.wav	2.0	1	2.2560000000000002
74.2828	6.643	G_P	2.0	n/a	n/a	2.0	3.385	Gram/Gram_run-02/stereo_2MP80U2.wav	2.0	1	2.429
80.9376	7.69	G_C	1.0	n/a	n/a	1.0	0.47	Gram/Gram_run-02/CoM06e.wav	1.0	1	1.22
88.639	6.352	G_F	2.0	n/a	n/a	2.0	3.654	Gram/Gram_run-02/stereo_2MF63U3.wav	2.0	1	4.404
94.9947	5.801	G_G	1.0	n/a	n/a	1.0	3.228	Gram/Gram_run-02/stereo_1MF18G3.wav	1.0	1	1.8450000000000002
100.8001	7.113	G_P	2.0	n/a	n/a	2.0	4.079	Gram/Gram_run-02/stereo_1MP44U4.wav	2.0	1	1.7219999999999995
107.9218	6.78	G_C	1.0	n/a	n/a	1.0	0.012	Gram/Gram_run-02/CoM05b.wav	1.0	1	0.762
114.7101	6.7360000000000015	G_F	2.0	n/a	n/a	2.0	1.891	Gram/Gram_run-02/stereo_2MF58U2.wav	2.0	1	2.641
121.4494	6.089	G_P	2.0	n/a	n/a	2.0	3.215	Gram/Gram_run-02/stereo_2MP87U3.wav	2.0	1	2.003
127.5529	7.6370000000000005	G_P	2.0	n/a	n/a	2.0	4.289	Gram/Gram_run-02/stereo_2MP73U1.wav	2.0	1	2.2619999999999996
135.1929	7.305	G_C	1.0	1.0	0.727	1.0	1.264	Gram/Gram_run-02/CoM02l.wav	1.0	1	0.727
142.4994	5.983	G_G	1.0	n/a	n/a	1.0	3.105	Gram/Gram_run-02/stereo_1MP42G3.wav	1.0	1	2.183
148.4871	5.36	G_P	2.0	n/a	n/a	2.0	2.949	Gram/Gram_run-02/stereo_1MP32U2.wav	2.0	1	1.9429999999999996
153.8576	7.145	G_C	1.0	n/a	n/a	1.0	0.253	Gram/Gram_run-02/CoM09e.wav	1.0	1	1.0030000000000001
161.0128	6.28	G_F	2.0	n/a	n/a	2.0	3.445	Gram/Gram_run-02/stereo_1MF19U4.wav	2.0	1	2.759
167.3005	6.63	G_C	1.0	n/a	n/a	1.0	0.204	Gram/Gram_run-02/CoM07b.wav	1.0	1	0.954
173.9386	7.195	G_G	1.0	n/a	n/a	2.0	3.965	Gram/Gram_run-02/stereo_2MP89G3.wav	2.0	0	2.627
181.1437	5.174	G_F	2.0	n/a	n/a	2.0	3.0980000000000003	Gram/Gram_run-02/stereo_1MF07U2.wav	2.0	1	3.8480000000000003
186.3308	6.944	G_P	2.0	n/a	n/a	2.0	3.583	Gram/Gram_run-02/stereo_2MP88U3.wav	2.0	1	2.54
193.2858	6.089	G_G	1.0	n/a	n/a	1.0	3.0860000000000003	Gram/Gram_run-02/stereo_2MF66G3.wav	1.0	1	1.7120000000000006
199.3896	6.5	G_C	1.0	n/a	n/a	1.0	0.243	Gram/Gram_run-02/CoM01e.wav	1.0	1	0.993
205.8946	6.43	G_P	2.0	n/a	n/a	2.0	4.065	Gram/Gram_run-02/stereo_1MP43U4.wav	2.0	1	1.7830000000000004
212.3325	6.19	G_G	1.0	n/a	n/a	1.0	2.679	Gram/Gram_run-02/stereo_2MP84G2.wav	1.0	1	1.7469999999999999
218.537	7.114	G_G	1.0	n/a	n/a	2.0	3.904	Gram/Gram_run-02/stereo_1MP29G1.wav	2.0	0	1.7159999999999997
225.6587	6.731	G_F	2.0	n/a	n/a	2.0	4.147	Gram/Gram_run-02/stereo_2MF53U1.wav	2.0	1	3.576
232.3969	6.015	G_C	1.0	n/a	n/a	1.0	0.158	Gram/Gram_run-02/CoM02d.wav	1.0	1	0.908
238.4179	7.17	G_G	1.0	n/a	n/a	1.0	4.29	Gram/Gram_run-02/stereo_2MF71G4.wav	1.0	1	2.0409999999999995
245.5909	5.33	G_C	1.0	n/a	n/a	1.0	0.472	Gram/Gram_run-02/CoM06b.wav	1.0	1	1.222
250.9316	6.968999999999999	G_F	2.0	n/a	n/a	2.0	3.341	Gram/Gram_run-02/stereo_2MF54U1.wav	2.0	1	2.7710000000000004
257.9045	7.6	G_G	1.0	n/a	n/a	1.0	4.141	Gram/Gram_run-02/stereo_2MF49G1.wav	1.0	1	1.952
