onset	duration	trial_type	correct	window1_response	window1_RT	window2_response	window2_RT	stim_file	calculated_response	calculated_accuracy	calculated_RT
1.084	4.2010000000000005	S_U	2.0	n/a	n/a	1.0	2.907	Sem/Sem_run-02/stereo_1SU33A0.wav	1.0	0	2.657
5.287000000000001	3.486	S_U	2.0	n/a	n/a	2.0	2.059	Sem/Sem_run-02/stereo_2SU85A0.wav	2.0	1	1.8090000000000002
8.773	3.8539999999999996	S_H	1.0	n/a	n/a	1.0	1.574	Sem/Sem_run-02/stereo_2SH50A0.wav	1.0	1	1.324
12.643	3.454	S_C	1.0	n/a	n/a	1.0	1.215	Sem/Sem_run-02/ContS08.wav	1.0	1	1.965
16.112000000000002	4.33	S_H	1.0	n/a	n/a	n/a	n/a	Sem/Sem_run-02/stereo_1SH10A0.wav	n/a	0	n/a
20.449	3.872	S_L	1.0	n/a	n/a	2.0	1.9080000000000001	Sem/Sem_run-02/stereo_2SL61A0.wav	2.0	0	1.658
24.335	3.885	S_L	1.0	n/a	n/a	1.0	1.635	Sem/Sem_run-02/stereo_1SL23A0.wav	1.0	1	1.385
28.222	4.2	S_U	2.0	n/a	n/a	2.0	1.314	Sem/Sem_run-02/stereo_1SU42A0.wav	2.0	1	1.064
32.425	3.321	S_L	1.0	n/a	n/a	2.0	1.695	Sem/Sem_run-02/stereo_1SL16A0.wav	2.0	0	1.445
35.761	3.59	S_C	1.0	n/a	n/a	1.0	1.673	Sem/Sem_run-02/ContS26.wav	1.0	1	2.423
39.364	4.4	S_H	1.0	n/a	n/a	1.0	1.411	Sem/Sem_run-02/stereo_2SH60A0.wav	1.0	1	1.161
43.767	4.311	S_L	1.0	n/a	n/a	n/a	n/a	Sem/Sem_run-02/stereo_2SL75A0.wav	n/a	0	n/a
48.087	3.912	S_H	1.0	n/a	n/a	1.0	1.482	Sem/Sem_run-02/stereo_2SH59A0.wav	1.0	1	1.232
52.007	4.4	S_U	2.0	n/a	n/a	1.0	1.841	Sem/Sem_run-02/stereo_2SU84A0.wav	1.0	0	1.591
56.41	3.4210000000000003	S_U	2.0	n/a	n/a	2.0	2.133	Sem/Sem_run-02/stereo_1SU43A0.wav	2.0	1	1.883
59.846	3.8539999999999996	S_C	1.0	n/a	n/a	1.0	1.675	Sem/Sem_run-02/ContS02.wav	1.0	1	2.425
63.716	4.37	S_L	1.0	n/a	n/a	2.0	2.4219999999999997	Sem/Sem_run-02/stereo_1SL19A0.wav	2.0	0	2.172
68.086	3.862	S_L	1.0	n/a	n/a	n/a	n/a	Sem/Sem_run-02/stereo_1SL18A0.wav	n/a	0	n/a
71.956	4.462	S_C	1.0	n/a	n/a	1.0	1.8119999999999998	Sem/Sem_run-02/ContS22.wav	1.0	1	2.5620000000000003
76.426	3.406	S_L	1.0	n/a	n/a	1.0	2.075	Sem/Sem_run-02/stereo_1SL21A0.wav	1.0	1	1.8250000000000002
79.845	3.355	S_U	2.0	n/a	n/a	2.0	1.015	Sem/Sem_run-02/stereo_1SU36A0.wav	2.0	1	0.7649999999999999
83.214	4.324	S_C	1.0	n/a	n/a	1.0	1.119	Sem/Sem_run-02/ContS04.wav	1.0	1	1.869
87.551	4.253	S_L	1.0	n/a	n/a	2.0	1.798	Sem/Sem_run-02/stereo_1SL24A0.wav	2.0	0	1.548
91.804	3.839	S_L	1.0	n/a	n/a	1.0	1.636	Sem/Sem_run-02/stereo_2SL70A0.wav	1.0	1	1.386
95.657	4.395	S_C	1.0	n/a	n/a	1.0	1.618	Sem/Sem_run-02/ContS14.wav	1.0	1	2.3680000000000003
100.061	3.8739999999999997	S_H	1.0	n/a	n/a	2.0	1.804	Sem/Sem_run-02/stereo_1SH09A0.wav	2.0	0	1.554
103.947	3.75	S_U	2.0	n/a	n/a	2.0	2.055	Sem/Sem_run-02/stereo_1SU32A0.wav	2.0	1	1.8050000000000002
107.7	3.641	S_C	1.0	n/a	n/a	1.0	1.507	Sem/Sem_run-02/ContS34.wav	1.0	1	2.2569999999999997
111.353	3.338	S_U	2.0	n/a	n/a	1.0	0.9470000000000001	Sem/Sem_run-02/stereo_1SU31A0.wav	1.0	0	0.697
114.706	3.45	S_L	1.0	n/a	n/a	n/a	n/a	Sem/Sem_run-02/stereo_2SL68A0.wav	n/a	0	n/a
118.158	3.8510000000000004	S_H	1.0	n/a	n/a	1.0	1.112	Sem/Sem_run-02/stereo_1SH14A0.wav	1.0	1	0.8620000000000001
122.011	3.459	S_H	1.0	n/a	n/a	1.0	1.403	Sem/Sem_run-02/stereo_1SH01A0.wav	1.0	1	1.153
125.481	3.512	S_C	1.0	n/a	n/a	1.0	1.182	Sem/Sem_run-02/ContS16.wav	1.0	1	1.932
129.0	3.489	S_H	1.0	n/a	n/a	1.0	1.288	Sem/Sem_run-02/stereo_1SH12A0.wav	1.0	1	1.038
132.503	3.8489999999999998	S_U	2.0	n/a	n/a	2.0	1.32	Sem/Sem_run-02/stereo_2SU86A0.wav	2.0	1	1.07
136.356	3.46	S_L	1.0	n/a	n/a	n/a	n/a	Sem/Sem_run-02/stereo_1SL28A0.wav	n/a	0	n/a
139.825	4.53	S_C	1.0	n/a	n/a	1.0	1.72	Sem/Sem_run-02/ContS32.wav	1.0	1	2.4699999999999998
144.362	4.351	S_H	1.0	n/a	n/a	1.0	1.723	Sem/Sem_run-02/stereo_2SH52A0.wav	1.0	1	1.473
148.715	3.48	S_H	1.0	n/a	n/a	n/a	n/a	Sem/Sem_run-02/stereo_2SH47A0.wav	n/a	0	n/a
152.201	3.3	S_H	1.0	n/a	n/a	n/a	n/a	Sem/Sem_run-02/stereo_2SH53A0.wav	n/a	0	n/a
155.504	3.847	S_U	2.0	n/a	n/a	1.0	1.673	Sem/Sem_run-02/stereo_1SU39A0.wav	1.0	0	1.423
159.357	3.923	S_C	1.0	n/a	n/a	1.0	1.074	Sem/Sem_run-02/ContS10.wav	1.0	1	1.824
163.293	3.7510000000000003	S_U	2.0	n/a	n/a	2.0	1.7469999999999999	Sem/Sem_run-02/stereo_2SU80A0.wav	2.0	1	1.497
167.046	4.2	S_L	1.0	n/a	n/a	1.0	1.9269999999999998	Sem/Sem_run-02/stereo_2SL66A0.wav	1.0	1	1.677
171.24900000000005	3.99	S_C	1.0	n/a	n/a	1.0	2.344	Sem/Sem_run-02/ContS20.wav	1.0	1	3.094
175.253	4.041	S_C	1.0	n/a	n/a	1.0	1.275	Sem/Sem_run-02/ContS28.wav	1.0	1	2.025
179.30599999999995	4.2	S_U	2.0	n/a	n/a	2.0	2.824	Sem/Sem_run-02/stereo_2SU89A0.wav	2.0	1	2.574
183.509	4.368	S_H	1.0	n/a	n/a	1.0	1.357	Sem/Sem_run-02/stereo_2SH46A0.wav	1.0	1	1.107
