onset	duration	trial_type	correct	window1_response	window1_RT	window2_response	window2_RT	stim_file	calculated_response	calculated_accuracy	calculated_RT
1.085	3.4539999999999997	P_R	1.0	n/a	n/a	1.0	1.3619999999999999	Phon/Phon_run-01/stereo_PR01.wav	1.0	1	1.112
4.5539999999999985	3.767	P_O	1.0	n/a	n/a	1.0	0.953	Phon/Phon_run-01/PC018.wav	1.0	1	0.703
8.323	3.391	P_O	1.0	n/a	n/a	1.0	1.341	Phon/Phon_run-01/PC009.wav	1.0	1	1.091
11.725999999999999	4.374	P_C	1.0	n/a	n/a	1.0	0.787	Phon/Phon_run-01/ContS11.wav	1.0	1	1.537
16.113	3.345	P_U	2.0	n/a	n/a	2.0	1.511	Phon/Phon_run-01/PM002.wav	2.0	1	1.261
19.465	4.4510000000000005	P_C	1.0	1.0	0.708	n/a	n/a	Phon/Phon_run-01/ContS21.wav	1.0	1	0.708
23.919	4.382	P_O	1.0	n/a	n/a	1.0	1.227	Phon/Phon_run-01/PC005.wav	1.0	1	0.9770000000000001
28.305	3.3	P_U	2.0	n/a	n/a	2.0	1.294	Phon/Phon_run-01/stereo_PU26.wav	2.0	1	1.044
31.608	4.324	P_C	1.0	1.0	0.653	1.0	0.715	Phon/Phon_run-01/ContS03.wav	1.0	1	0.653
35.945	4.378	P_R	1.0	n/a	n/a	1.0	2.0909999999999997	Phon/Phon_run-01/stereo_PR29.wav	1.0	1	1.8410000000000002
40.330999999999996	3.4810000000000003	P_U	2.0	n/a	n/a	2.0	1.713	Phon/Phon_run-01/PM020.wav	2.0	1	1.463
43.817	4.393	P_O	1.0	n/a	n/a	1.0	1.704	Phon/Phon_run-01/PC027.wav	1.0	1	1.454
48.221000000000004	4.4	P_R	1.0	n/a	n/a	1.0	2.2	Phon/Phon_run-01/stereo_PR11.wav	1.0	1	1.9500000000000002
52.62399999999999	3.884	P_C	1.0	1.0	0.647	n/a	n/a	Phon/Phon_run-01/ContS05.wav	1.0	1	0.647
56.51	3.891	P_U	2.0	n/a	n/a	2.0	1.475	Phon/Phon_run-01/stereo_PU28.wav	2.0	1	1.225
60.413000000000004	4.4	P_O	1.0	n/a	n/a	2.0	2.004	Phon/Phon_run-01/PC013.wav	2.0	0	1.754
64.817	3.513	P_C	1.0	1.0	0.7040000000000001	1.0	0.899	Phon/Phon_run-01/ContS17.wav	1.0	1	0.7040000000000001
68.336	4.4	P_U	2.0	n/a	n/a	2.0	1.494	Phon/Phon_run-01/PM027.wav	2.0	1	1.244
72.73899999999998	4.4	P_O	1.0	n/a	n/a	1.0	1.47	Phon/Phon_run-01/PC021.wav	1.0	1	1.22
77.143	4.496	P_C	1.0	n/a	n/a	1.0	0.099	Phon/Phon_run-01/ContS29.wav	1.0	1	0.849
81.646	3.3680000000000003	P_R	1.0	n/a	n/a	1.0	1.6580000000000001	Phon/Phon_run-01/stereo_PR25.wav	1.0	1	1.408
85.016	3.95	P_O	1.0	n/a	n/a	1.0	1.746	Phon/Phon_run-01/PC012.wav	1.0	1	1.496
88.969	3.95	P_U	2.0	n/a	n/a	n/a	n/a	Phon/Phon_run-01/PM003.wav	n/a	0	n/a
92.92200000000001	3.939	P_O	1.0	n/a	n/a	1.0	1.3230000000000002	Phon/Phon_run-01/PC004.wav	1.0	1	1.0730000000000002
96.875	3.59	P_C	1.0	1.0	0.735	n/a	n/a	Phon/Phon_run-01/ContS27.wav	1.0	1	0.735
100.477	4.296	P_U	2.0	n/a	n/a	2.0	1.431	Phon/Phon_run-01/stereo_PU21.wav	2.0	1	1.181
104.781	3.862	P_R	1.0	n/a	n/a	1.0	1.7309999999999999	Phon/Phon_run-01/stereo_PR26.wav	1.0	1	1.481
108.65	3.95	P_O	1.0	n/a	n/a	1.0	1.287	Phon/Phon_run-01/PC026.wav	1.0	1	1.037
112.603	3.5	P_O	1.0	n/a	n/a	1.0	1.4480000000000002	Phon/Phon_run-01/PC025.wav	1.0	1	1.1980000000000002
116.10600000000001	4.013	P_C	1.0	1.0	0.6729999999999999	1.0	1.909	Phon/Phon_run-01/ContS23.wav	1.0	1	0.6729999999999999
120.126	3.792	P_R	1.0	n/a	n/a	1.0	1.547	Phon/Phon_run-01/stereo_PR18.wav	1.0	1	1.297
123.929	3.346	P_U	2.0	n/a	n/a	n/a	n/a	Phon/Phon_run-01/stereo_PU19.wav	n/a	0	n/a
127.281	3.891	P_R	1.0	n/a	n/a	1.0	1.59	Phon/Phon_run-01/stereo_PR03.wav	1.0	1	1.34
131.184	3.355	P_O	1.0	n/a	n/a	1.0	1.611	Phon/Phon_run-01/PC003.wav	1.0	1	1.361
134.554	3.951	P_C	1.0	1.0	0.721	n/a	n/a	Phon/Phon_run-01/ContS15.wav	1.0	1	0.721
138.507	3.74	P_U	2.0	n/a	n/a	2.0	1.5830000000000002	Phon/Phon_run-01/stereo_PU16.wav	2.0	1	1.3330000000000002
142.259	3.95	P_R	1.0	n/a	n/a	1.0	2.023	Phon/Phon_run-01/stereo_PR10.wav	1.0	1	1.7730000000000001
146.21200000000005	3.464	P_C	1.0	n/a	n/a	n/a	n/a	Phon/Phon_run-01/ContS09.wav	n/a	0	n/a
149.68200000000004	4.275	P_R	1.0	n/a	n/a	n/a	n/a	Phon/Phon_run-01/stereo_PR04.wav	n/a	0	n/a
153.968	3.95	P_U	2.0	n/a	n/a	2.0	1.902	Phon/Phon_run-01/PM023.wav	2.0	1	1.652
157.921	4.4	P_U	2.0	n/a	n/a	2.0	1.9040000000000001	Phon/Phon_run-01/PM001.wav	2.0	1	1.654
162.325	3.665	P_C	1.0	n/a	n/a	1.0	0.462	Phon/Phon_run-01/ContS35.wav	1.0	1	1.212
165.99400000000003	3.463	P_O	1.0	n/a	n/a	1.0	1.412	Phon/Phon_run-01/PC017.wav	1.0	1	1.162
169.46400000000003	4.332	P_R	1.0	n/a	n/a	1.0	1.38	Phon/Phon_run-01/stereo_PR19.wav	1.0	1	1.13
173.8	4.083	P_C	1.0	n/a	n/a	1.0	0.35	Phon/Phon_run-01/ContS33.wav	1.0	1	1.1
177.887	3.5	P_R	1.0	n/a	n/a	1.0	1.315	Phon/Phon_run-01/stereo_PR17.wav	1.0	1	1.065
181.389	4.2669999999999995	P_U	2.0	n/a	n/a	2.0	1.798	Phon/Phon_run-01/PM009.wav	2.0	1	1.548
185.65900000000002	3.4389999999999996	P_R	1.0	n/a	n/a	1.0	1.56	Phon/Phon_run-01/stereo_PR09.wav	1.0	1	1.31
