onset	duration	trial_type	correct	window1_response	window1_RT	window2_response	window2_RT	stim_file	calculated_response	calculated_accuracy	calculated_RT
1.084	4.2	S_U	2.0	n/a	n/a	1.0	1.729	Sem/Sem_run-01/stereo_1SU41A0.wav	1.0	0	1.479
5.287000000000001	3.596	S_C	1.0	n/a	n/a	1.0	0.20199999999999999	Sem/Sem_run-01/ContS29.wav	1.0	1	0.952
8.89	3.425	S_U	2.0	n/a	n/a	1.0	1.84	Sem/Sem_run-01/stereo_2SU87A0.wav	1.0	0	1.59
12.325999999999999	3.933	S_H	1.0	n/a	n/a	1.0	1.901	Sem/Sem_run-01/stereo_1SH13A0.wav	1.0	1	1.651
16.262	4.323	S_H	1.0	n/a	n/a	1.0	1.496	Sem/Sem_run-01/stereo_1SH05A0.wav	1.0	1	1.246
20.599	4.073	S_C	1.0	1.0	0.735	1.0	1.275	Sem/Sem_run-01/ContS31.wav	1.0	1	0.735
24.685	3.869	S_L	1.0	n/a	n/a	1.0	1.641	Sem/Sem_run-01/stereo_2SL63A0.wav	1.0	1	1.391
28.555	3.75	S_L	1.0	n/a	n/a	1.0	1.349	Sem/Sem_run-01/stereo_1SL29A0.wav	1.0	1	1.099
32.308	4.3660000000000005	S_U	2.0	n/a	n/a	2.0	1.6769999999999998	Sem/Sem_run-01/stereo_2SU78A0.wav	2.0	1	1.4269999999999998
36.678000000000004	3.3	S_L	1.0	n/a	n/a	1.0	1.511	Sem/Sem_run-01/stereo_1SL17A0.wav	1.0	1	1.261
39.98	3.884	S_C	1.0	n/a	n/a	1.0	2.359	Sem/Sem_run-01/ContS05.wav	1.0	1	3.109
43.867	4.371	S_H	1.0	n/a	n/a	1.0	1.6669999999999998	Sem/Sem_run-01/stereo_2SH58A0.wav	1.0	1	1.4169999999999998
48.253	4.329	S_L	1.0	n/a	n/a	1.0	1.629	Sem/Sem_run-01/stereo_2SL72A0.wav	1.0	1	1.379
52.59	3.94	S_H	1.0	n/a	n/a	1.0	1.581	Sem/Sem_run-01/stereo_2SH57A0.wav	1.0	1	1.331
56.543	4.2	S_U	2.0	n/a	n/a	1.0	1.484	Sem/Sem_run-01/stereo_2SU83A0.wav	1.0	0	1.234
60.746	3.474	S_C	1.0	n/a	n/a	1.0	0.413	Sem/Sem_run-01/ContS11.wav	1.0	1	1.163
64.232	4.271	S_L	1.0	n/a	n/a	1.0	1.4609999999999999	Sem/Sem_run-01/stereo_1SL26A0.wav	1.0	1	1.211
68.51899999999999	3.91	S_L	1.0	n/a	n/a	1.0	1.561	Sem/Sem_run-01/stereo_1SL25A0.wav	1.0	1	1.311
72.439	4.479	S_C	1.0	n/a	n/a	n/a	n/a	Sem/Sem_run-01/ContS25.wav	n/a	0	n/a
76.925	3.378	S_U	2.0	n/a	n/a	1.0	1.712	Sem/Sem_run-01/stereo_2SU81A0.wav	1.0	0	1.462
80.311	3.42	S_L	1.0	n/a	n/a	1.0	1.676	Sem/Sem_run-01/stereo_1SL27A0.wav	1.0	1	1.426
83.73100000000002	4.3439999999999985	S_L	1.0	n/a	n/a	1.0	1.4909999999999999	Sem/Sem_run-01/stereo_1SL30A0.wav	1.0	1	1.241
88.084	3.909	S_L	1.0	n/a	n/a	1.0	1.337	Sem/Sem_run-01/stereo_2SL71A0.wav	1.0	1	1.087
92.00399999999999	3.867	S_H	1.0	n/a	n/a	1.0	1.486	Sem/Sem_run-01/stereo_1SH04A0.wav	1.0	1	1.236
95.87299999999999	3.828	S_U	2.0	n/a	n/a	n/a	n/a	Sem/Sem_run-01/stereo_1SU37A0.wav	n/a	0	n/a
99.71	4.565	S_C	1.0	n/a	n/a	1.0	0.105	Sem/Sem_run-01/ContS35.wav	1.0	1	0.855
104.28	3.3	S_U	2.0	n/a	n/a	1.0	1.383	Sem/Sem_run-01/stereo_1SU35A0.wav	1.0	0	1.133
107.58200000000001	3.477	S_L	1.0	n/a	n/a	1.0	1.6669999999999998	Sem/Sem_run-01/stereo_2SL65A0.wav	1.0	1	1.4169999999999998
111.068	3.83	S_H	1.0	n/a	n/a	1.0	1.545	Sem/Sem_run-01/stereo_1SH07A0.wav	1.0	1	1.295
114.905	4.3439999999999985	S_C	1.0	n/a	n/a	1.0	0.201	Sem/Sem_run-01/ContS07.wav	1.0	1	0.9510000000000001
119.258	3.5	S_H	1.0	n/a	n/a	1.0	1.652	Sem/Sem_run-01/stereo_1SH03A0.wav	1.0	1	1.402
122.76100000000001	3.919	S_U	2.0	n/a	n/a	1.0	1.825	Sem/Sem_run-01/stereo_1SU45A0.wav	1.0	0	1.575
126.68	3.5	S_H	1.0	n/a	n/a	1.0	1.681	Sem/Sem_run-01/stereo_1SH06A0.wav	1.0	1	1.431
130.183	3.392	S_L	1.0	n/a	n/a	1.0	1.45	Sem/Sem_run-01/stereo_2SL62A0.wav	1.0	1	1.2
133.586	3.54	S_C	1.0	n/a	n/a	n/a	n/a	Sem/Sem_run-01/ContS19.wav	n/a	0	n/a
137.138	4.4	S_H	1.0	n/a	n/a	1.0	1.625	Sem/Sem_run-01/stereo_1SH15A0.wav	1.0	1	1.375
141.542	3.342	S_H	1.0	n/a	n/a	1.0	1.653	Sem/Sem_run-01/stereo_1SH11A0.wav	1.0	1	1.403
144.894	3.385	S_U	2.0	n/a	n/a	2.0	1.89	Sem/Sem_run-01/stereo_1SU44A0.wav	2.0	1	1.64
148.28	3.4160000000000004	S_H	1.0	n/a	n/a	1.0	1.515	Sem/Sem_run-01/stereo_2SH56A0.wav	1.0	1	1.265
151.69899999999996	3.849	S_U	2.0	n/a	n/a	1.0	1.744	Sem/Sem_run-01/stereo_2SU82A0.wav	1.0	0	1.494
155.55200000000005	3.934	S_C	1.0	n/a	n/a	1.0	0.262	Sem/Sem_run-01/ContS13.wav	1.0	1	1.012
159.489	4.309	S_L	1.0	n/a	n/a	1.0	1.422	Sem/Sem_run-01/stereo_2SL64A0.wav	1.0	1	1.172
163.809	4.413	S_C	1.0	1.0	0.688	1.0	1.135	Sem/Sem_run-01/ContS17.wav	1.0	1	0.688
168.229	4.2	S_U	2.0	n/a	n/a	2.0	1.6469999999999998	Sem/Sem_run-01/stereo_2SU90A0.wav	2.0	1	1.3969999999999998
172.43200000000004	3.846	S_U	2.0	n/a	n/a	1.0	1.308	Sem/Sem_run-01/stereo_2SU88A0.wav	1.0	0	1.058
176.285	3.3939999999999997	S_C	1.0	n/a	n/a	1.0	0.042	Sem/Sem_run-01/ContS01.wav	1.0	1	0.792
179.688	4.013	S_C	1.0	n/a	n/a	1.0	0.024	Sem/Sem_run-01/ContS23.wav	1.0	1	0.774
183.707	4.227	S_H	1.0	n/a	n/a	1.0	1.204	Sem/Sem_run-01/stereo_1SH08A0.wav	1.0	1	0.954
