onset	duration	trial_type	correct	window1_response	window1_RT	window2_response	window2_RT	stim_file	calculated_response	calculated_accuracy	calculated_RT
1.084	4.2010000000000005	S_U	2.0	n/a	n/a	1.0	2.392	Sem/Sem_run-02/stereo_1SU33A0.wav	1.0	0	2.142
5.287999999999999	3.486	S_U	2.0	n/a	n/a	2.0	2.015	Sem/Sem_run-02/stereo_2SU85A0.wav	2.0	1	1.7650000000000001
8.774	3.8539999999999996	S_H	1.0	n/a	n/a	1.0	1.474	Sem/Sem_run-02/stereo_2SH50A0.wav	1.0	1	1.224
12.643	3.454	S_C	1.0	n/a	n/a	1.0	0.20600000000000002	Sem/Sem_run-02/ContS08.wav	1.0	1	0.956
16.112000000000002	4.33	S_H	1.0	n/a	n/a	1.0	1.3659999999999999	Sem/Sem_run-02/stereo_1SH10A0.wav	1.0	1	1.116
20.449	3.872	S_L	1.0	n/a	n/a	1.0	1.675	Sem/Sem_run-02/stereo_2SL61A0.wav	1.0	1	1.425
24.335	3.885	S_L	1.0	n/a	n/a	2.0	2.23	Sem/Sem_run-02/stereo_1SL23A0.wav	2.0	0	1.98
28.222	4.2	S_U	2.0	n/a	n/a	2.0	2.679	Sem/Sem_run-02/stereo_1SU42A0.wav	2.0	1	2.429
32.425	3.321	S_L	1.0	n/a	n/a	1.0	1.4	Sem/Sem_run-02/stereo_1SL16A0.wav	1.0	1	1.15
35.761	3.59	S_C	1.0	1.0	0.72	1.0	0.401	Sem/Sem_run-02/ContS26.wav	1.0	1	0.72
39.364	4.4	S_H	1.0	1.0	0.528	1.0	1.2830000000000001	Sem/Sem_run-02/stereo_2SH60A0.wav	1.0	1	1.033
43.767	4.311	S_L	1.0	n/a	n/a	2.0	2.595	Sem/Sem_run-02/stereo_2SL75A0.wav	2.0	0	2.345
48.087	3.912	S_H	1.0	n/a	n/a	2.0	1.75	Sem/Sem_run-02/stereo_2SH59A0.wav	2.0	0	1.5
52.007	4.4	S_U	2.0	n/a	n/a	1.0	1.692	Sem/Sem_run-02/stereo_2SU84A0.wav	1.0	0	1.442
56.41	3.4210000000000003	S_U	2.0	n/a	n/a	1.0	2.21	Sem/Sem_run-02/stereo_1SU43A0.wav	1.0	0	1.96
59.846	3.8539999999999996	S_C	1.0	n/a	n/a	1.0	0.045	Sem/Sem_run-02/ContS02.wav	1.0	1	0.795
63.716	4.37	S_L	1.0	n/a	n/a	1.0	1.419	Sem/Sem_run-02/stereo_1SL19A0.wav	1.0	1	1.169
68.086	3.862	S_L	1.0	n/a	n/a	1.0	1.875	Sem/Sem_run-02/stereo_1SL18A0.wav	1.0	1	1.625
71.955	4.462	S_C	1.0	n/a	n/a	1.0	0.295	Sem/Sem_run-02/ContS22.wav	1.0	1	1.045
76.425	3.406	S_L	1.0	n/a	n/a	n/a	n/a	Sem/Sem_run-02/stereo_1SL21A0.wav	1.0	1	2.5540000000000003
79.845	3.355	S_U	2.0	1.0	0.14800000000000002	2.0	1.3319999999999999	Sem/Sem_run-02/stereo_1SU36A0.wav	2.0	1	1.082
83.214	4.324	S_C	1.0	n/a	n/a	1.0	0.698	Sem/Sem_run-02/ContS04.wav	1.0	1	1.448
87.551	4.253	S_L	1.0	n/a	n/a	2.0	1.2990000000000002	Sem/Sem_run-02/stereo_1SL24A0.wav	2.0	0	1.0490000000000002
91.804	3.839	S_L	1.0	n/a	n/a	n/a	n/a	Sem/Sem_run-02/stereo_2SL70A0.wav	n/a	0	n/a
95.657	4.395	S_C	1.0	n/a	n/a	1.0	1.672	Sem/Sem_run-02/ContS14.wav	1.0	1	2.4219999999999997
100.06	3.8739999999999997	S_H	1.0	n/a	n/a	1.0	1.6480000000000001	Sem/Sem_run-02/stereo_1SH09A0.wav	1.0	1	1.398
103.947	3.75	S_U	2.0	n/a	n/a	2.0	1.284	Sem/Sem_run-02/stereo_1SU32A0.wav	2.0	1	1.034
107.699	3.641	S_C	1.0	n/a	n/a	2.0	0.027999999999999997	Sem/Sem_run-02/ContS34.wav	2.0	0	0.778
111.352	3.338	S_U	2.0	n/a	n/a	1.0	1.206	Sem/Sem_run-02/stereo_1SU31A0.wav	1.0	0	0.956
114.705	3.45	S_L	1.0	n/a	n/a	n/a	n/a	Sem/Sem_run-02/stereo_2SL68A0.wav	1.0	1	2.708
118.157	3.8510000000000004	S_H	1.0	1.0	0.258	2.0	1.9480000000000002	Sem/Sem_run-02/stereo_1SH14A0.wav	2.0	0	1.698
122.01	3.459	S_H	1.0	n/a	n/a	1.0	1.811	Sem/Sem_run-02/stereo_1SH01A0.wav	1.0	1	1.561
125.48	3.512	S_C	1.0	1.0	0.695	1.0	0.369	Sem/Sem_run-02/ContS16.wav	1.0	1	0.695
128.999	3.489	S_H	1.0	n/a	n/a	1.0	1.508	Sem/Sem_run-02/stereo_1SH12A0.wav	1.0	1	1.258
132.502	3.8489999999999998	S_U	2.0	n/a	n/a	2.0	1.787	Sem/Sem_run-02/stereo_2SU86A0.wav	2.0	1	1.537
136.355	3.46	S_L	1.0	n/a	n/a	n/a	n/a	Sem/Sem_run-02/stereo_1SL28A0.wav	n/a	0	n/a
139.82399999999998	4.53	S_C	1.0	n/a	n/a	1.0	0.489	Sem/Sem_run-02/ContS32.wav	1.0	1	1.2389999999999999
144.361	4.351	S_H	1.0	n/a	n/a	1.0	2.023	Sem/Sem_run-02/stereo_2SH52A0.wav	1.0	1	1.7730000000000001
148.714	3.48	S_H	1.0	n/a	n/a	n/a	n/a	Sem/Sem_run-02/stereo_2SH47A0.wav	n/a	0	n/a
152.2	3.3	S_H	1.0	n/a	n/a	1.0	1.182	Sem/Sem_run-02/stereo_2SH53A0.wav	1.0	1	0.9319999999999999
155.503	3.847	S_U	2.0	n/a	n/a	2.0	2.556	Sem/Sem_run-02/stereo_1SU39A0.wav	2.0	1	2.306
159.356	3.923	S_C	1.0	n/a	n/a	1.0	0.782	Sem/Sem_run-02/ContS10.wav	1.0	1	1.532
163.292	3.7510000000000003	S_U	2.0	n/a	n/a	2.0	1.244	Sem/Sem_run-02/stereo_2SU80A0.wav	2.0	1	0.994
167.045	4.2	S_L	1.0	n/a	n/a	2.0	2.938	Sem/Sem_run-02/stereo_2SL66A0.wav	2.0	0	2.688
171.248	3.99	S_C	1.0	n/a	n/a	1.0	0.188	Sem/Sem_run-02/ContS20.wav	1.0	1	0.938
175.25099999999995	4.041	S_C	1.0	n/a	n/a	1.0	0.431	Sem/Sem_run-02/ContS28.wav	1.0	1	1.181
179.304	4.2	S_U	2.0	n/a	n/a	n/a	n/a	Sem/Sem_run-02/stereo_2SU89A0.wav	n/a	0	n/a
183.508	4.368	S_H	1.0	n/a	n/a	1.0	1.5290000000000001	Sem/Sem_run-02/stereo_2SH46A0.wav	1.0	1	1.279
