onset	duration	trial_type	correct	window1_response	window1_RT	window2_response	window2_RT	stim_file	calculated_response	calculated_accuracy	calculated_RT
1.085	6.343	SP_S	1.0	n/a	n/a	1.0	4.093999999999999	Plaus/Plaus_run-02/stereo_PC37.wav	1.0	1	1.932999999999998
7.439	6.345	SP_W	1.0	n/a	n/a	2.0	3.783	Plaus/Plaus_run-02/stereo_PW74.wav	2.0	0	1.814
13.794	6.095	SP_C	1.0	n/a	n/a	1.0	0.11900000000000001	Plaus/Plaus_run-02/CoM10d.wav	1.0	1	0.869
19.899	6.401	SP_I	2.0	n/a	n/a	1.0	3.429	Plaus/Plaus_run-02/stereo_PI56.wav	1.0	0	2.5619999999999994
26.304000000000002	6.407	SP_W	1.0	n/a	n/a	2.0	3.988	Plaus/Plaus_run-02/stereo_PW39.wav	2.0	0	1.9609999999999999
32.725	6.8420000000000005	SP_I	2.0	n/a	n/a	n/a	n/a	Plaus/Plaus_run-02/stereo_PI44.wav	n/a	0	n/a
39.580999999999996	7.7	SP_C	1.0	n/a	n/a	1.0	0.25	Plaus/Plaus_run-02/CoM07e.wav	1.0	1	1.0
47.287	5.756	SP_S	1.0	n/a	n/a	1.0	2.927	Plaus/Plaus_run-02/stereo_PC03.wav	1.0	1	1.9850000000000003
53.058	7.372000000000001	SP_S	1.0	n/a	n/a	1.0	4.011	Plaus/Plaus_run-02/stereo_PC82.wav	1.0	1	1.956
60.43	6.095	SP_C	1.0	n/a	n/a	1.0	0.214	Plaus/Plaus_run-02/CoM04d.wav	1.0	1	0.964
66.535	6.303	SP_I	2.0	n/a	n/a	2.0	4.203	Plaus/Plaus_run-02/stereo_PI23.wav	2.0	1	3.2190000000000003
72.84	5.655	SP_I	2.0	n/a	n/a	2.0	3.03	Plaus/Plaus_run-02/stereo_PI22.wav	2.0	1	2.1109999999999998
78.51100000000002	6.85	SP_C	1.0	n/a	n/a	1.0	0.379	Plaus/Plaus_run-02/CoM08d.wav	1.0	1	1.129
85.366	6.9179999999999975	SP_S	1.0	n/a	n/a	1.0	4.149	Plaus/Plaus_run-02/stereo_PC79.wav	1.0	1	1.9030000000000005
92.288	5.233	SP_I	2.0	n/a	n/a	2.0	2.95	Plaus/Plaus_run-02/stereo_PI21.wav	2.0	1	1.9100000000000004
97.525	6.385	SP_S	1.0	n/a	n/a	1.0	2.785	Plaus/Plaus_run-02/stereo_PC46.wav	1.0	1	1.8230000000000002
103.913	6.282	SP_W	1.0	n/a	n/a	2.0	4.2669999999999995	Plaus/Plaus_run-02/stereo_PW64.wav	2.0	0	3.1610000000000005
110.20200000000001	7.69	SP_C	1.0	n/a	n/a	1.0	0.049	Plaus/Plaus_run-02/CoM04e.wav	1.0	1	0.799
117.90700000000001	6.316	SP_I	2.0	n/a	n/a	n/a	n/a	Plaus/Plaus_run-02/stereo_PI34.wav	n/a	0	n/a
124.229	5.47	SP_C	1.0	n/a	n/a	1.0	0.297	Plaus/Plaus_run-02/CoM10b.wav	1.0	1	1.047
129.7	5.636	SP_I	2.0	n/a	n/a	2.0	2.844	Plaus/Plaus_run-02/stereo_PI55.wav	2.0	1	2.005
135.338	7.461	SP_W	1.0	n/a	n/a	1.0	3.864	Plaus/Plaus_run-02/stereo_PW83.wav	1.0	1	1.8600000000000003
142.81	5.48	SP_C	1.0	n/a	n/a	1.0	3.279	Plaus/Plaus_run-02/CoM01b.wav	1.0	1	4.029
148.297	6.2120000000000015	SP_W	1.0	n/a	n/a	1.0	2.553	Plaus/Plaus_run-02/stereo_PW08.wav	1.0	1	1.692
154.519	4.694	SP_W	1.0	n/a	n/a	2.0	2.451	Plaus/Plaus_run-02/stereo_PW07.wav	2.0	0	1.576
159.222	6.197	SP_I	2.0	n/a	n/a	n/a	n/a	Plaus/Plaus_run-02/stereo_PI43.wav	n/a	0	n/a
165.42700000000005	6.1979999999999995	SP_S	1.0	n/a	n/a	1.0	3.48	Plaus/Plaus_run-02/stereo_PC59.wav	1.0	1	2.479
171.632	7.345	SP_C	1.0	n/a	n/a	1.0	1.8519999999999999	Plaus/Plaus_run-02/CoM05l.wav	1.0	1	2.6020000000000003
178.988	5.2429999999999986	SP_S	1.0	n/a	n/a	1.0	3.1039999999999996	Plaus/Plaus_run-02/stereo_PC02.wav	1.0	1	2.225
184.24200000000002	6.82	SP_C	1.0	n/a	n/a	n/a	n/a	Plaus/Plaus_run-02/CoM09l.wav	n/a	0	n/a
191.06400000000002	7.183	SP_I	2.0	n/a	n/a	1.0	4.1	Plaus/Plaus_run-02/stereo_PI78.wav	1.0	0	2.1819999999999995
198.252	6.727	SP_W	1.0	n/a	n/a	1.0	4.208	Plaus/Plaus_run-02/stereo_PW40.wav	1.0	1	1.975
204.99099999999999	5.181	SP_S	1.0	n/a	n/a	2.0	3.48	Plaus/Plaus_run-02/stereo_PC60.wav	2.0	0	2.19
210.178	7.135	SP_W	1.0	n/a	n/a	2.0	4.575	Plaus/Plaus_run-02/stereo_PW73.wav	2.0	0	2.643
217.317	6.76	SP_C	1.0	n/a	n/a	1.0	1.864	Plaus/Plaus_run-02/CoM04l.wav	1.0	1	2.614
224.08900000000003	6.682	SP_I	2.0	1.0	0.551	2.0	3.613	Plaus/Plaus_run-02/stereo_PI75.wav	2.0	1	1.617
230.77700000000002	6.002999999999999	SP_W	1.0	n/a	n/a	n/a	n/a	Plaus/Plaus_run-02/stereo_PW63.wav	n/a	0	n/a
236.782	5.0760000000000005	SP_W	1.0	n/a	n/a	1.0	2.862	Plaus/Plaus_run-02/stereo_PW05.wav	1.0	1	2.084
241.86900000000003	6.218	SP_S	1.0	n/a	n/a	1.0	0.495	Plaus/Plaus_run-02/stereo_PC69.wav	n/a	0	n/a
248.09099999999998	6.569	SP_S	1.0	n/a	n/a	2.0	4.6930000000000005	Plaus/Plaus_run-02/stereo_PC70.wav	2.0	0	2.8170000000000006
