onset	duration	trial_type	correct	window1_response	window1_RT	window2_response	window2_RT	stim_file	calculated_response	calculated_accuracy	calculated_RT
1.101	4.2010000000000005	S_U	2.0	n/a	n/a	1.0	1.31	Sem/Sem_run-02/stereo_1SU33A0.wav	1.0	0	1.06
5.303999999999999	3.486	S_U	2.0	n/a	n/a	2.0	1.216	Sem/Sem_run-02/stereo_2SU85A0.wav	2.0	1	0.966
8.79	3.8539999999999996	S_H	1.0	n/a	n/a	1.0	1.732	Sem/Sem_run-02/stereo_2SH50A0.wav	1.0	1	1.482
12.66	3.454	S_C	1.0	n/a	n/a	1.0	0.168	Sem/Sem_run-02/ContS08.wav	1.0	1	0.918
16.129	4.33	S_H	1.0	n/a	n/a	1.0	1.582	Sem/Sem_run-02/stereo_1SH10A0.wav	1.0	1	1.332
20.466	3.872	S_L	1.0	n/a	n/a	2.0	1.767	Sem/Sem_run-02/stereo_2SL61A0.wav	2.0	0	1.517
24.352	3.885	S_L	1.0	n/a	n/a	1.0	1.774	Sem/Sem_run-02/stereo_1SL23A0.wav	1.0	1	1.524
28.239	4.2	S_U	2.0	n/a	n/a	2.0	1.3030000000000002	Sem/Sem_run-02/stereo_1SU42A0.wav	2.0	1	1.0530000000000002
32.442	3.321	S_L	1.0	n/a	n/a	1.0	2.055	Sem/Sem_run-02/stereo_1SL16A0.wav	1.0	1	1.805
35.778	3.59	S_C	1.0	n/a	n/a	1.0	0.37	Sem/Sem_run-02/ContS26.wav	1.0	1	1.12
39.381	4.4	S_H	1.0	n/a	n/a	1.0	1.768	Sem/Sem_run-02/stereo_2SH60A0.wav	1.0	1	1.518
43.784	4.311	S_L	1.0	n/a	n/a	1.0	1.638	Sem/Sem_run-02/stereo_2SL75A0.wav	1.0	1	1.388
48.104	3.912	S_H	1.0	n/a	n/a	1.0	1.6130000000000002	Sem/Sem_run-02/stereo_2SH59A0.wav	1.0	1	1.3630000000000002
52.024	4.4	S_U	2.0	n/a	n/a	2.0	1.65	Sem/Sem_run-02/stereo_2SU84A0.wav	2.0	1	1.4
56.427	3.4210000000000003	S_U	2.0	n/a	n/a	2.0	1.529	Sem/Sem_run-02/stereo_1SU43A0.wav	2.0	1	1.279
59.863	3.8539999999999996	S_C	1.0	n/a	n/a	1.0	0.455	Sem/Sem_run-02/ContS02.wav	1.0	1	1.205
63.733	4.37	S_L	1.0	n/a	n/a	1.0	1.817	Sem/Sem_run-02/stereo_1SL19A0.wav	1.0	1	1.567
68.10300000000001	3.862	S_L	1.0	n/a	n/a	1.0	1.2919999999999998	Sem/Sem_run-02/stereo_1SL18A0.wav	1.0	1	1.0419999999999998
71.973	4.462	S_C	1.0	n/a	n/a	1.0	0.037000000000000005	Sem/Sem_run-02/ContS22.wav	1.0	1	0.787
76.443	3.406	S_L	1.0	n/a	n/a	1.0	1.224	Sem/Sem_run-02/stereo_1SL21A0.wav	1.0	1	0.974
79.862	3.355	S_U	2.0	n/a	n/a	2.0	1.356	Sem/Sem_run-02/stereo_1SU36A0.wav	2.0	1	1.106
83.23100000000002	4.324	S_C	1.0	n/a	n/a	1.0	0.52	Sem/Sem_run-02/ContS04.wav	1.0	1	1.27
87.568	4.253	S_L	1.0	n/a	n/a	1.0	1.561	Sem/Sem_run-02/stereo_1SL24A0.wav	1.0	1	1.311
91.821	3.839	S_L	1.0	n/a	n/a	2.0	1.755	Sem/Sem_run-02/stereo_2SL70A0.wav	2.0	0	1.505
95.674	4.395	S_C	1.0	n/a	n/a	1.0	0.147	Sem/Sem_run-02/ContS14.wav	1.0	1	0.897
100.078	3.8739999999999997	S_H	1.0	n/a	n/a	1.0	1.662	Sem/Sem_run-02/stereo_1SH09A0.wav	1.0	1	1.412
103.964	3.75	S_U	2.0	n/a	n/a	1.0	1.192	Sem/Sem_run-02/stereo_1SU32A0.wav	1.0	0	0.942
107.717	3.641	S_C	1.0	n/a	n/a	1.0	0.5379999999999999	Sem/Sem_run-02/ContS34.wav	1.0	1	1.2879999999999998
111.37	3.338	S_U	2.0	n/a	n/a	2.0	1.4509999999999998	Sem/Sem_run-02/stereo_1SU31A0.wav	2.0	1	1.2009999999999998
114.722	3.45	S_L	1.0	n/a	n/a	1.0	1.953	Sem/Sem_run-02/stereo_2SL68A0.wav	1.0	1	1.703
118.175	3.8510000000000004	S_H	1.0	n/a	n/a	1.0	0.8220000000000001	Sem/Sem_run-02/stereo_1SH14A0.wav	1.0	1	0.5720000000000001
122.028	3.459	S_H	1.0	n/a	n/a	1.0	1.306	Sem/Sem_run-02/stereo_1SH01A0.wav	1.0	1	1.056
125.497	3.512	S_C	1.0	n/a	n/a	1.0	0.096	Sem/Sem_run-02/ContS16.wav	1.0	1	0.846
129.017	3.489	S_H	1.0	n/a	n/a	1.0	1.35	Sem/Sem_run-02/stereo_1SH12A0.wav	1.0	1	1.1
132.519	3.8489999999999998	S_U	2.0	n/a	n/a	2.0	1.5930000000000002	Sem/Sem_run-02/stereo_2SU86A0.wav	2.0	1	1.3430000000000002
136.372	3.46	S_L	1.0	n/a	n/a	1.0	1.0659999999999998	Sem/Sem_run-02/stereo_1SL28A0.wav	1.0	1	0.8159999999999998
139.842	4.53	S_C	1.0	n/a	n/a	1.0	0.153	Sem/Sem_run-02/ContS32.wav	1.0	1	0.903
144.379	4.351	S_H	1.0	n/a	n/a	1.0	1.075	Sem/Sem_run-02/stereo_2SH52A0.wav	1.0	1	0.825
148.732	3.48	S_H	1.0	n/a	n/a	1.0	1.5530000000000002	Sem/Sem_run-02/stereo_2SH47A0.wav	1.0	1	1.3030000000000002
152.218	3.3	S_H	1.0	n/a	n/a	1.0	1.206	Sem/Sem_run-02/stereo_2SH53A0.wav	1.0	1	0.956
155.52100000000004	3.847	S_U	2.0	n/a	n/a	2.0	1.2919999999999998	Sem/Sem_run-02/stereo_1SU39A0.wav	2.0	1	1.0419999999999998
159.374	3.923	S_C	1.0	n/a	n/a	1.0	0.382	Sem/Sem_run-02/ContS10.wav	1.0	1	1.1320000000000001
163.31	3.7510000000000003	S_U	2.0	n/a	n/a	2.0	1.631	Sem/Sem_run-02/stereo_2SU80A0.wav	2.0	1	1.381
167.063	4.2	S_L	1.0	n/a	n/a	2.0	1.7	Sem/Sem_run-02/stereo_2SL66A0.wav	2.0	0	1.45
171.266	3.99	S_C	1.0	1.0	0.73	1.0	0.936	Sem/Sem_run-02/ContS20.wav	1.0	1	0.73
175.269	4.041	S_C	1.0	1.0	0.74	1.0	1.132	Sem/Sem_run-02/ContS28.wav	1.0	1	0.74
179.322	4.2	S_U	2.0	n/a	n/a	2.0	2.128	Sem/Sem_run-02/stereo_2SU89A0.wav	2.0	1	1.8780000000000001
183.526	4.368	S_H	1.0	n/a	n/a	1.0	1.449	Sem/Sem_run-02/stereo_2SH46A0.wav	1.0	1	1.199
