onset	duration	trial_type	correct	window1_response	window1_RT	window2_response	window2_RT	stim_file	calculated_response	calculated_accuracy	calculated_RT
1.0924	3.5	P_R	1.0	n/a	n/a	1.0	2.283	Phon/Phon_run-02/stereo_PR20.wav	1.0	1	2.033
4.595	4.235	P_O	1.0	n/a	n/a	1.0	1.485	Phon/Phon_run-02/PC034.wav	1.0	1	1.235
8.8325	3.375	P_R	1.0	n/a	n/a	1.0	1.739	Phon/Phon_run-02/stereo_PR13.wav	1.0	1	1.489
12.2183	3.474	P_C	1.0	n/a	n/a	1.0	1.245	Phon/Phon_run-02/ContS12.wav	1.0	1	1.995
15.7041	3.875	P_U	2.0	n/a	n/a	2.0	2.051	Phon/Phon_run-02/PM025.wav	2.0	1	1.8010000000000002
19.5903	3.726	P_R	1.0	n/a	n/a	n/a	n/a	Phon/Phon_run-02/stereo_PR22.wav	n/a	0	n/a
23.3263	3.451	P_O	1.0	n/a	n/a	1.0	1.8940000000000001	Phon/Phon_run-02/PC014.wav	1.0	1	1.644
26.7799	3.779	P_C	1.0	n/a	n/a	1.0	0.555	Phon/Phon_run-02/ContS02.wav	1.0	1	1.3050000000000002
30.566	3.821	P_U	2.0	n/a	n/a	2.0	2.174	Phon/Phon_run-02/stereo_PU18.wav	2.0	1	1.924
34.402	3.49	P_U	2.0	n/a	n/a	n/a	n/a	Phon/Phon_run-02/stereo_PU12.wav	n/a	0	n/a
37.9046	4.38	P_C	1.0	n/a	n/a	1.0	2.081	Phon/Phon_run-02/ContS32.wav	1.0	1	2.831
42.291000000000004	4.0969999999999995	P_R	1.0	n/a	n/a	1.0	2.589	Phon/Phon_run-02/stereo_PR16.wav	1.0	1	2.339
46.394	3.5	P_O	1.0	n/a	n/a	2.0	2.127	Phon/Phon_run-02/PC022.wav	2.0	0	1.8769999999999998
49.8966	4.0760000000000005	P_R	1.0	n/a	n/a	1.0	1.449	Phon/Phon_run-02/stereo_PR08.wav	1.0	1	1.199
53.983000000000004	3.5	P_O	1.0	n/a	n/a	1.0	1.815	Phon/Phon_run-02/PC028.wav	1.0	1	1.565
57.4856	3.5	P_U	2.0	n/a	n/a	2.0	2.247	Phon/Phon_run-02/stereo_PU27.wav	2.0	1	1.9969999999999999
60.9881	3.819	P_C	1.0	n/a	n/a	1.0	0.431	Phon/Phon_run-02/ContS06.wav	1.0	1	1.181
64.8086	4.25	P_O	1.0	n/a	n/a	1.0	1.676	Phon/Phon_run-02/PC031.wav	1.0	1	1.426
69.062	3.662	P_C	1.0	n/a	n/a	1.0	0.6970000000000001	Phon/Phon_run-02/ContS36.wav	1.0	1	1.447
72.7312	3.823	P_O	1.0	n/a	n/a	n/a	n/a	Phon/Phon_run-02/PC023.wav	n/a	0	n/a
76.5674	4.323	P_C	1.0	n/a	n/a	2.0	0.6579999999999999	Phon/Phon_run-02/ContS24.wav	2.0	0	1.408
80.9038	3.865	P_U	2.0	n/a	n/a	n/a	n/a	Phon/Phon_run-02/PM004.wav	n/a	0	n/a
84.7733	3.875	P_O	1.0	n/a	n/a	n/a	n/a	Phon/Phon_run-02/PC007.wav	1.0	1	3.2089999999999996
88.6594	4.25	P_U	2.0	1.0	0.33399999999999996	1.0	2.918	Phon/Phon_run-02/PM011.wav	1.0	0	2.668
92.9126	4.362	P_C	1.0	n/a	n/a	1.0	1.2229999999999999	Phon/Phon_run-02/ContS30.wav	1.0	1	1.973
97.2825	3.875	P_O	1.0	n/a	n/a	1.0	1.837	Phon/Phon_run-02/PC030.wav	1.0	1	1.587
101.1687	3.3360000000000003	P_R	1.0	n/a	n/a	1.0	1.6480000000000001	Phon/Phon_run-02/stereo_PR05.wav	1.0	1	1.398
104.5077	4.113	P_U	2.0	n/a	n/a	2.0	1.598	Phon/Phon_run-02/stereo_PU01.wav	2.0	1	1.348
108.6273	4.1739999999999995	P_U	2.0	n/a	n/a	2.0	2.752	Phon/Phon_run-02/PM029.wav	2.0	1	2.502
112.8137	3.4539999999999997	P_C	1.0	n/a	n/a	1.0	0.37200000000000005	Phon/Phon_run-02/ContS08.wav	1.0	1	1.122
116.2828	3.446	P_R	1.0	n/a	n/a	1.0	1.7730000000000001	Phon/Phon_run-02/stereo_PR30.wav	1.0	1	1.523
119.7352	3.85	P_R	1.0	n/a	n/a	1.0	1.159	Phon/Phon_run-02/stereo_PR07.wav	1.0	1	0.909
123.588	3.438	P_U	2.0	n/a	n/a	2.0	1.778	Phon/Phon_run-02/stereo_PU02.wav	2.0	1	1.528
127.0406	3.915	P_C	1.0	n/a	n/a	1.0	1.5190000000000001	Phon/Phon_run-02/ContS20.wav	1.0	1	2.269
130.9601	3.487	P_U	2.0	n/a	n/a	n/a	n/a	Phon/Phon_run-02/PM021.wav	n/a	0	n/a
134.46200000000002	3.965	P_C	1.0	n/a	n/a	1.0	0.52	Phon/Phon_run-02/ContS26.wav	1.0	1	1.27
138.4315	3.792	P_R	1.0	n/a	n/a	1.0	1.5219999999999998	Phon/Phon_run-02/stereo_PR31.wav	1.0	1	1.2719999999999998
142.2343	4.135	P_O	1.0	n/a	n/a	1.0	2.206	Phon/Phon_run-02/PC024.wav	1.0	1	1.956
146.3717	3.875	P_U	2.0	n/a	n/a	2.0	1.8880000000000001	Phon/Phon_run-02/PM010.wav	2.0	1	1.638
150.2579	3.875	P_O	1.0	n/a	n/a	2.0	1.9809999999999999	Phon/Phon_run-02/PC015.wav	2.0	0	1.731
154.144	4.245	P_C	1.0	n/a	n/a	1.0	1.286	Phon/Phon_run-02/ContS14.wav	1.0	1	2.036
158.3971	3.854	P_R	1.0	n/a	n/a	1.0	1.635	Phon/Phon_run-02/stereo_PR14.wav	1.0	1	1.385
162.2662	4.239	P_O	1.0	n/a	n/a	1.0	1.693	Phon/Phon_run-02/PC008.wav	1.0	1	1.443
166.5192	4.25	P_U	2.0	n/a	n/a	2.0	3.033	Phon/Phon_run-02/stereo_PU11.wav	2.0	1	2.783
170.7726	3.523	P_C	1.0	1.0	0.182	n/a	n/a	Phon/Phon_run-02/ContS18.wav	1.0	1	0.182
174.3085	3.429	P_O	1.0	n/a	n/a	n/a	n/a	Phon/Phon_run-02/PC006.wav	n/a	0	n/a
177.7443	4.18	P_R	1.0	n/a	n/a	1.0	1.49	Phon/Phon_run-02/stereo_PR32.wav	1.0	1	1.24
181.9307	4.104	P_R	1.0	n/a	n/a	1.0	1.198	Phon/Phon_run-02/stereo_PR24.wav	1.0	1	0.948
