onset	duration	trial_type	correct	window1_response	window1_RT	window2_response	window2_RT	stim_file	calculated_response	calculated_accuracy	calculated_RT
1.084	6.895	G_F	2.0	n/a	n/a	2.0	2.7460000000000004	Gram/Gram_run-01/stereo_2MF57U2.wav	2.0	1	3.4960000000000004
7.989	7.175	G_F	2.0	n/a	n/a	2.0	2.65	Gram/Gram_run-01/stereo_1MF15U3.wav	2.0	1	3.4
15.178	6.5070000000000014	G_G	1.0	n/a	n/a	1.0	3.276	Gram/Gram_run-01/stereo_1MF11G2.wav	1.0	1	2.0959999999999996
21.7	6.505	G_C	1.0	n/a	n/a	1.0	1.038	Gram/Gram_run-01/CoM09d.wav	1.0	1	1.788
28.205	6.9479999999999995	G_F	2.0	n/a	n/a	2.0	3.809	Gram/Gram_run-01/stereo_2MF68U4.wav	2.0	1	3.083
35.161	5.541	G_P	2.0	n/a	n/a	2.0	2.807	Gram/Gram_run-01/stereo_1MP37U3.wav	2.0	1	1.7719999999999998
40.715	5.9479999999999995	G_G	1.0	n/a	n/a	1.0	4.185	Gram/Gram_run-01/stereo_2MF50G1.wav	1.0	1	2.09
46.669	6.013	G_F	2.0	n/a	n/a	2.0	3.719	Gram/Gram_run-01/stereo_1MF05U1.wav	2.0	1	3.117
52.691	7.87	G_C	1.0	n/a	n/a	1.0	1.227	Gram/Gram_run-01/CoM01l.wav	1.0	1	1.977
60.56399999999999	6.4979999999999976	G_G	1.0	n/a	n/a	1.0	4.113	Gram/Gram_run-01/stereo_1MF23G4.wav	1.0	1	1.9320000000000004
67.069	6.184	G_F	2.0	n/a	n/a	1.0	3.664	Gram/Gram_run-01/stereo_2MF55U2.wav	1.0	0	4.414
73.257	6.83	G_C	1.0	n/a	n/a	1.0	1.389	Gram/Gram_run-01/CoM10l.wav	1.0	1	2.1390000000000002
80.095	7.505	G_G	1.0	n/a	n/a	1.0	4.41	Gram/Gram_run-01/stereo_2MP96G4.wav	1.0	1	2.0150000000000006
87.601	7.1370000000000005	G_G	1.0	n/a	n/a	1.0	4.582	Gram/Gram_run-01/stereo_1MP47G4.wav	1.0	1	2.115
94.74	6.694	G_F	2.0	n/a	n/a	2.0	2.358	Gram/Gram_run-01/stereo_2MF61U3.wav	2.0	1	3.108
101.445	5.39	G_C	1.0	n/a	n/a	1.0	1.129	Gram/Gram_run-01/CoM01d.wav	1.0	1	1.879
106.849	6.5760000000000005	G_G	1.0	n/a	n/a	1.0	3.87	Gram/Gram_run-01/stereo_1MP35G2.wav	1.0	1	2.866
113.438	5.3389999999999995	G_F	2.0	n/a	n/a	2.0	3.62	Gram/Gram_run-01/stereo_2MF69U4.wav	2.0	1	2.8820000000000006
118.792	7.94	G_C	1.0	n/a	n/a	1.0	0.8079999999999999	Gram/Gram_run-01/CoM08l.wav	1.0	1	1.5579999999999998
126.748	6.006	G_P	2.0	n/a	n/a	2.0	3.902	Gram/Gram_run-01/stereo_1MP26U1.wav	2.0	1	1.9260000000000002
132.769	8.422	G_F	2.0	n/a	n/a	2.0	3.995	Gram/Gram_run-01/stereo_1MF06U1.wav	2.0	1	3.3999999999999995
141.19299999999996	7.885	G_P	2.0	n/a	n/a	2.0	2.925	Gram/Gram_run-01/stereo_2MP81U2.wav	2.0	1	2.0399999999999996
149.082	6.1270000000000024	G_G	1.0	n/a	n/a	1.0	3.2939999999999996	Gram/Gram_run-01/stereo_2MP83G2.wav	1.0	1	2.234
155.22	5.765	G_C	1.0	n/a	n/a	1.0	0.517	Gram/Gram_run-01/CoM02b.wav	1.0	1	1.267
160.991	6.706	G_P	2.0	n/a	n/a	2.0	4.328	Gram/Gram_run-01/stereo_2MP93U4.wav	2.0	1	1.9280000000000008
167.713	6.61	G_P	2.0	n/a	n/a	2.0	3.937	Gram/Gram_run-01/stereo_1MP28U1.wav	2.0	1	1.8220000000000005
174.335	6.63	G_C	1.0	n/a	n/a	1.0	1.0659999999999998	Gram/Gram_run-01/CoM04b.wav	1.0	1	1.8159999999999998
180.973	5.665	G_P	2.0	n/a	n/a	2.0	4.342	Gram/Gram_run-01/stereo_1MP27U1.wav	2.0	1	2.34
186.644	7.55	G_G	1.0	n/a	n/a	1.0	4.1610000000000005	Gram/Gram_run-01/stereo_2MP77G1.wav	1.0	1	2.0620000000000003
194.2	6.51	G_C	1.0	n/a	n/a	1.0	0.511	Gram/Gram_run-01/CoM03e.wav	1.0	1	1.2610000000000001
200.722	6.98	G_P	2.0	n/a	n/a	2.0	4.163	Gram/Gram_run-01/stereo_2MP92U4.wav	2.0	1	1.814
207.711	7.047999999999999	G_G	1.0	n/a	n/a	1.0	3.1489999999999996	Gram/Gram_run-01/stereo_1MF12G2.wav	1.0	1	2.1149999999999993
214.766	5.574	G_F	2.0	n/a	n/a	2.0	3.44	Gram/Gram_run-01/stereo_1MF04U1.wav	2.0	1	2.852
220.354	5.67	G_C	1.0	n/a	n/a	1.0	0.48	Gram/Gram_run-01/CoM07d.wav	1.0	1	1.23
226.025	6.6160000000000005	G_P	2.0	n/a	n/a	2.0	3.036	Gram/Gram_run-01/stereo_1MP39U3.wav	2.0	1	2.032
232.647	5.695	G_P	2.0	n/a	n/a	2.0	2.733	Gram/Gram_run-01/stereo_2MP82U2.wav	2.0	1	1.8120000000000003
238.351	6.6270000000000024	G_F	2.0	n/a	n/a	2.0	2.562	Gram/Gram_run-01/stereo_1MF13U3.wav	2.0	1	3.312
244.989	7.145	G_C	1.0	n/a	n/a	1.0	0.611	Gram/Gram_run-01/CoM08e.wav	1.0	1	1.361
252.145	6.805	G_G	1.0	n/a	n/a	1.0	3.3739999999999997	Gram/Gram_run-01/stereo_1MP41G3.wav	1.0	1	2.0679999999999996
258.95	7.519	G_P	2.0	n/a	n/a	2.0	3.18	Gram/Gram_run-01/stereo_1MP38U3.wav	2.0	1	1.941
