onset	duration	trial_type	correct	window1_response	window1_RT	window2_response	window2_RT	stim_file	calculated_response	calculated_accuracy	calculated_RT
1.084	3.4539999999999997	P_R	1.0	n/a	n/a	1.0	1.393	Phon/Phon_run-01/stereo_PR01.wav	1.0	1	1.143
4.553	3.767	P_O	1.0	n/a	n/a	2.0	1.159	Phon/Phon_run-01/PC018.wav	2.0	0	0.909
8.323	3.391	P_O	1.0	n/a	n/a	1.0	1.207	Phon/Phon_run-01/PC009.wav	1.0	1	0.9570000000000001
11.725	4.374	P_C	1.0	n/a	n/a	1.0	1.031	Phon/Phon_run-01/ContS11.wav	1.0	1	1.781
16.112000000000002	3.345	P_U	2.0	n/a	n/a	2.0	1.028	Phon/Phon_run-01/PM002.wav	2.0	1	0.778
19.465	4.4510000000000005	P_C	1.0	n/a	n/a	1.0	0.64	Phon/Phon_run-01/ContS21.wav	1.0	1	1.3900000000000001
23.91800000000001	4.382	P_O	1.0	n/a	n/a	1.0	1.2930000000000001	Phon/Phon_run-01/PC005.wav	1.0	1	1.0430000000000001
28.305	3.3	P_U	2.0	n/a	n/a	2.0	0.9520000000000001	Phon/Phon_run-01/stereo_PU26.wav	2.0	1	0.7020000000000001
31.607	4.324	P_C	1.0	n/a	n/a	1.0	0.868	Phon/Phon_run-01/ContS03.wav	1.0	1	1.6179999999999999
35.944	4.378	P_R	1.0	n/a	n/a	2.0	1.147	Phon/Phon_run-01/stereo_PR29.wav	2.0	0	0.897
40.330999999999996	3.4810000000000003	P_U	2.0	n/a	n/a	2.0	1.206	Phon/Phon_run-01/PM020.wav	2.0	1	0.956
43.817	4.393	P_O	1.0	n/a	n/a	1.0	1.219	Phon/Phon_run-01/PC027.wav	1.0	1	0.9690000000000001
48.22	4.4	P_R	1.0	n/a	n/a	1.0	1.6030000000000002	Phon/Phon_run-01/stereo_PR11.wav	1.0	1	1.3530000000000002
52.62399999999999	3.884	P_C	1.0	n/a	n/a	1.0	1.07	Phon/Phon_run-01/ContS05.wav	1.0	1	1.82
56.51	3.891	P_U	2.0	n/a	n/a	2.0	1.248	Phon/Phon_run-01/stereo_PU28.wav	2.0	1	0.998
60.413000000000004	4.4	P_O	1.0	n/a	n/a	1.0	1.1159999999999999	Phon/Phon_run-01/PC013.wav	1.0	1	0.8659999999999999
64.816	3.513	P_C	1.0	n/a	n/a	1.0	0.727	Phon/Phon_run-01/ContS17.wav	1.0	1	1.4769999999999999
68.336	4.4	P_U	2.0	n/a	n/a	2.0	1.587	Phon/Phon_run-01/PM027.wav	2.0	1	1.337
72.73899999999998	4.4	P_O	1.0	n/a	n/a	2.0	1.402	Phon/Phon_run-01/PC021.wav	2.0	0	1.152
77.143	4.496	P_C	1.0	n/a	n/a	1.0	1.104	Phon/Phon_run-01/ContS29.wav	1.0	1	1.854
81.646	3.3680000000000003	P_R	1.0	n/a	n/a	1.0	1.2229999999999999	Phon/Phon_run-01/stereo_PR25.wav	1.0	1	0.9729999999999999
85.015	3.95	P_O	1.0	n/a	n/a	1.0	1.304	Phon/Phon_run-01/PC012.wav	1.0	1	1.054
88.969	3.95	P_U	2.0	n/a	n/a	2.0	1.479	Phon/Phon_run-01/PM003.wav	2.0	1	1.229
92.92200000000001	3.939	P_O	1.0	n/a	n/a	1.0	1.253	Phon/Phon_run-01/PC004.wav	1.0	1	1.003
96.875	3.59	P_C	1.0	n/a	n/a	1.0	1.182	Phon/Phon_run-01/ContS27.wav	1.0	1	1.932
100.477	4.296	P_U	2.0	n/a	n/a	2.0	1.4340000000000002	Phon/Phon_run-01/stereo_PU21.wav	2.0	1	1.1840000000000002
104.781	3.862	P_R	1.0	n/a	n/a	1.0	1.196	Phon/Phon_run-01/stereo_PR26.wav	1.0	1	0.946
108.65	3.95	P_O	1.0	n/a	n/a	1.0	1.212	Phon/Phon_run-01/PC026.wav	1.0	1	0.962
112.603	3.5	P_O	1.0	n/a	n/a	1.0	1.288	Phon/Phon_run-01/PC025.wav	1.0	1	1.038
116.10600000000001	4.013	P_C	1.0	n/a	n/a	1.0	0.919	Phon/Phon_run-01/ContS23.wav	1.0	1	1.669
120.126	3.792	P_R	1.0	n/a	n/a	1.0	1.4469999999999998	Phon/Phon_run-01/stereo_PR18.wav	1.0	1	1.1969999999999998
123.929	3.346	P_U	2.0	n/a	n/a	2.0	1.7	Phon/Phon_run-01/stereo_PU19.wav	2.0	1	1.45
127.281	3.891	P_R	1.0	n/a	n/a	1.0	1.168	Phon/Phon_run-01/stereo_PR03.wav	1.0	1	0.9179999999999999
131.185	3.355	P_O	1.0	n/a	n/a	1.0	1.5090000000000001	Phon/Phon_run-01/PC003.wav	1.0	1	1.2590000000000001
134.554	3.951	P_C	1.0	n/a	n/a	1.0	0.7020000000000001	Phon/Phon_run-01/ContS15.wav	1.0	1	1.452
138.507	3.74	P_U	2.0	n/a	n/a	1.0	1.202	Phon/Phon_run-01/stereo_PU16.wav	1.0	0	0.952
142.26	3.95	P_R	1.0	n/a	n/a	1.0	1.2919999999999998	Phon/Phon_run-01/stereo_PR10.wav	1.0	1	1.0419999999999998
146.213	3.464	P_C	1.0	n/a	n/a	1.0	1.2590000000000001	Phon/Phon_run-01/ContS09.wav	1.0	1	2.0090000000000003
149.68200000000004	4.275	P_R	1.0	n/a	n/a	1.0	1.245	Phon/Phon_run-01/stereo_PR04.wav	1.0	1	0.9950000000000001
153.969	3.95	P_U	2.0	n/a	n/a	2.0	1.96	Phon/Phon_run-01/PM023.wav	2.0	1	1.71
157.922	4.4	P_U	2.0	n/a	n/a	2.0	1.358	Phon/Phon_run-01/PM001.wav	2.0	1	1.108
162.325	3.665	P_C	1.0	n/a	n/a	1.0	1.317	Phon/Phon_run-01/ContS35.wav	1.0	1	2.067
165.995	3.463	P_O	1.0	n/a	n/a	1.0	1.131	Phon/Phon_run-01/PC017.wav	1.0	1	0.881
169.46400000000003	4.332	P_R	1.0	n/a	n/a	1.0	1.21	Phon/Phon_run-01/stereo_PR19.wav	1.0	1	0.96
173.801	4.083	P_C	1.0	n/a	n/a	1.0	1.492	Phon/Phon_run-01/ContS33.wav	1.0	1	2.242
177.887	3.5	P_R	1.0	n/a	n/a	1.0	1.3019999999999998	Phon/Phon_run-01/stereo_PR17.wav	1.0	1	1.0519999999999998
181.39	4.2669999999999995	P_U	2.0	n/a	n/a	2.0	1.3	Phon/Phon_run-01/PM009.wav	2.0	1	1.05
185.66	3.4389999999999996	P_R	1.0	n/a	n/a	1.0	1.261	Phon/Phon_run-01/stereo_PR09.wav	1.0	1	1.011
