onset	duration	trial_type	correct	window1_response	window1_RT	window2_response	window2_RT	stim_file	calculated_response	calculated_accuracy	calculated_RT
1.084	4.2010000000000005	S_U	2.0	n/a	n/a	2.0	1.21	Sem/Sem_run-02/stereo_1SU33A0.wav	2.0	1	0.96
5.287999999999999	3.486	S_U	2.0	n/a	n/a	2.0	1.9040000000000001	Sem/Sem_run-02/stereo_2SU85A0.wav	2.0	1	1.654
8.774	3.8539999999999996	S_H	1.0	n/a	n/a	1.0	1.022	Sem/Sem_run-02/stereo_2SH50A0.wav	1.0	1	0.772
12.643	3.454	S_C	1.0	n/a	n/a	1.0	0.565	Sem/Sem_run-02/ContS08.wav	1.0	1	1.315
16.113	4.33	S_H	1.0	n/a	n/a	1.0	1.32	Sem/Sem_run-02/stereo_1SH10A0.wav	1.0	1	1.07
20.449	3.872	S_L	1.0	n/a	n/a	2.0	1.786	Sem/Sem_run-02/stereo_2SL61A0.wav	2.0	0	1.536
24.335	3.885	S_L	1.0	n/a	n/a	1.0	1.104	Sem/Sem_run-02/stereo_1SL23A0.wav	1.0	1	0.8540000000000001
28.222	4.2	S_U	2.0	n/a	n/a	2.0	1.265	Sem/Sem_run-02/stereo_1SU42A0.wav	2.0	1	1.015
32.425	3.321	S_L	1.0	n/a	n/a	1.0	1.065	Sem/Sem_run-02/stereo_1SL16A0.wav	1.0	1	0.815
35.761	3.59	S_C	1.0	n/a	n/a	1.0	0.391	Sem/Sem_run-02/ContS26.wav	1.0	1	1.141
39.364	4.4	S_H	1.0	n/a	n/a	1.0	1.396	Sem/Sem_run-02/stereo_2SH60A0.wav	1.0	1	1.146
43.767	4.311	S_L	1.0	n/a	n/a	1.0	1.315	Sem/Sem_run-02/stereo_2SL75A0.wav	1.0	1	1.065
48.087	3.912	S_H	1.0	n/a	n/a	n/a	n/a	Sem/Sem_run-02/stereo_2SH59A0.wav	n/a	0	n/a
52.007	4.4	S_U	2.0	n/a	n/a	2.0	1.848	Sem/Sem_run-02/stereo_2SU84A0.wav	2.0	1	1.598
56.41	3.4210000000000003	S_U	2.0	n/a	n/a	2.0	1.415	Sem/Sem_run-02/stereo_1SU43A0.wav	2.0	1	1.165
59.846	3.8539999999999996	S_C	1.0	n/a	n/a	1.0	0.5579999999999999	Sem/Sem_run-02/ContS02.wav	1.0	1	1.3079999999999998
63.716	4.37	S_L	1.0	n/a	n/a	1.0	1.23	Sem/Sem_run-02/stereo_1SL19A0.wav	1.0	1	0.98
68.086	3.862	S_L	1.0	n/a	n/a	1.0	1.349	Sem/Sem_run-02/stereo_1SL18A0.wav	1.0	1	1.099
71.955	4.462	S_C	1.0	n/a	n/a	1.0	0.855	Sem/Sem_run-02/ContS22.wav	1.0	1	1.605
76.425	3.406	S_L	1.0	n/a	n/a	1.0	1.274	Sem/Sem_run-02/stereo_1SL21A0.wav	1.0	1	1.024
79.845	3.355	S_U	2.0	n/a	n/a	2.0	1.63	Sem/Sem_run-02/stereo_1SU36A0.wav	2.0	1	1.38
83.214	4.324	S_C	1.0	n/a	n/a	1.0	0.991	Sem/Sem_run-02/ContS04.wav	1.0	1	1.741
87.55	4.253	S_L	1.0	n/a	n/a	2.0	1.294	Sem/Sem_run-02/stereo_1SL24A0.wav	2.0	0	1.044
91.804	3.839	S_L	1.0	n/a	n/a	1.0	1.385	Sem/Sem_run-02/stereo_2SL70A0.wav	1.0	1	1.135
95.657	4.395	S_C	1.0	n/a	n/a	1.0	0.9209999999999999	Sem/Sem_run-02/ContS14.wav	1.0	1	1.671
100.06	3.8739999999999997	S_H	1.0	n/a	n/a	1.0	1.5819999999999999	Sem/Sem_run-02/stereo_1SH09A0.wav	1.0	1	1.332
103.946	3.75	S_U	2.0	n/a	n/a	2.0	1.187	Sem/Sem_run-02/stereo_1SU32A0.wav	2.0	1	0.937
107.699	3.641	S_C	1.0	n/a	n/a	1.0	0.6859999999999999	Sem/Sem_run-02/ContS34.wav	1.0	1	1.436
111.352	3.338	S_U	2.0	n/a	n/a	2.0	1.535	Sem/Sem_run-02/stereo_1SU31A0.wav	2.0	1	1.285
114.705	3.45	S_L	1.0	n/a	n/a	1.0	1.385	Sem/Sem_run-02/stereo_2SL68A0.wav	1.0	1	1.135
118.157	3.8510000000000004	S_H	1.0	n/a	n/a	1.0	0.937	Sem/Sem_run-02/stereo_1SH14A0.wav	1.0	1	0.687
122.01	3.459	S_H	1.0	n/a	n/a	1.0	1.393	Sem/Sem_run-02/stereo_1SH01A0.wav	1.0	1	1.143
125.479	3.512	S_C	1.0	n/a	n/a	1.0	1.8119999999999998	Sem/Sem_run-02/ContS16.wav	1.0	1	2.5620000000000003
128.999	3.489	S_H	1.0	n/a	n/a	1.0	1.325	Sem/Sem_run-02/stereo_1SH12A0.wav	1.0	1	1.075
132.501	3.8489999999999998	S_U	2.0	n/a	n/a	2.0	1.5390000000000001	Sem/Sem_run-02/stereo_2SU86A0.wav	2.0	1	1.289
136.35399999999998	3.46	S_L	1.0	n/a	n/a	1.0	1.038	Sem/Sem_run-02/stereo_1SL28A0.wav	1.0	1	0.788
139.82399999999998	4.53	S_C	1.0	n/a	n/a	1.0	0.602	Sem/Sem_run-02/ContS32.wav	1.0	1	1.3519999999999999
144.361	4.351	S_H	1.0	n/a	n/a	1.0	1.051	Sem/Sem_run-02/stereo_2SH52A0.wav	1.0	1	0.8009999999999999
148.714	3.48	S_H	1.0	n/a	n/a	2.0	1.187	Sem/Sem_run-02/stereo_2SH47A0.wav	2.0	0	0.937
152.2	3.3	S_H	1.0	n/a	n/a	1.0	0.895	Sem/Sem_run-02/stereo_2SH53A0.wav	1.0	1	0.645
155.502	3.847	S_U	2.0	n/a	n/a	2.0	1.71	Sem/Sem_run-02/stereo_1SU39A0.wav	2.0	1	1.46
159.355	3.923	S_C	1.0	n/a	n/a	1.0	0.425	Sem/Sem_run-02/ContS10.wav	1.0	1	1.175
163.292	3.7510000000000003	S_U	2.0	n/a	n/a	2.0	1.3719999999999999	Sem/Sem_run-02/stereo_2SU80A0.wav	2.0	1	1.122
167.045	4.2	S_L	1.0	n/a	n/a	2.0	1.419	Sem/Sem_run-02/stereo_2SL66A0.wav	2.0	0	1.169
171.248	3.99	S_C	1.0	n/a	n/a	1.0	1.361	Sem/Sem_run-02/ContS20.wav	1.0	1	2.1109999999999998
175.25099999999995	4.041	S_C	1.0	n/a	n/a	1.0	1.4809999999999999	Sem/Sem_run-02/ContS28.wav	1.0	1	2.231
179.304	4.2	S_U	2.0	n/a	n/a	1.0	1.555	Sem/Sem_run-02/stereo_2SU89A0.wav	1.0	0	1.305
183.507	4.368	S_H	1.0	n/a	n/a	1.0	0.9890000000000001	Sem/Sem_run-02/stereo_2SH46A0.wav	1.0	1	0.739
