onset	duration	trial_type	correct	window1_response	window1_RT	window2_response	window2_RT	stim_file	calculated_response	calculated_accuracy	calculated_RT
1.0924	3.5	P_R	1.0	n/a	n/a	1.0	1.4	Phon/Phon_run-02/stereo_PR20.wav	1.0	1	1.15
4.595	4.235	P_O	1.0	n/a	n/a	1.0	1.499	Phon/Phon_run-02/PC034.wav	1.0	1	1.249
8.8325	3.375	P_R	1.0	n/a	n/a	1.0	1.516	Phon/Phon_run-02/stereo_PR13.wav	1.0	1	1.266
12.2183	3.474	P_C	1.0	n/a	n/a	1.0	0.355	Phon/Phon_run-02/ContS12.wav	1.0	1	1.105
15.7041	3.875	P_U	2.0	n/a	n/a	2.0	1.8940000000000001	Phon/Phon_run-02/PM025.wav	2.0	1	1.644
19.5903	3.726	P_R	1.0	n/a	n/a	1.0	1.6740000000000002	Phon/Phon_run-02/stereo_PR22.wav	1.0	1	1.4240000000000002
23.3263	3.451	P_O	1.0	n/a	n/a	2.0	1.6840000000000002	Phon/Phon_run-02/PC014.wav	2.0	0	1.4340000000000002
26.7799	3.779	P_C	1.0	n/a	n/a	1.0	0.331	Phon/Phon_run-02/ContS02.wav	1.0	1	1.081
30.566	3.821	P_U	2.0	n/a	n/a	2.0	1.9580000000000002	Phon/Phon_run-02/stereo_PU18.wav	2.0	1	1.708
34.402	3.49	P_U	2.0	n/a	n/a	2.0	2.2359999999999998	Phon/Phon_run-02/stereo_PU12.wav	2.0	1	1.9860000000000002
37.9046	4.38	P_C	1.0	n/a	n/a	1.0	0.107	Phon/Phon_run-02/ContS32.wav	1.0	1	0.857
42.291000000000004	4.0969999999999995	P_R	1.0	n/a	n/a	1.0	1.354	Phon/Phon_run-02/stereo_PR16.wav	1.0	1	1.104
46.394	3.5	P_O	1.0	n/a	n/a	1.0	2.056	Phon/Phon_run-02/PC022.wav	1.0	1	1.806
49.8966	4.0760000000000005	P_R	1.0	n/a	n/a	2.0	1.673	Phon/Phon_run-02/stereo_PR08.wav	2.0	0	1.423
53.983000000000004	3.5	P_O	1.0	n/a	n/a	1.0	2.092	Phon/Phon_run-02/PC028.wav	1.0	1	1.842
57.4856	3.5	P_U	2.0	n/a	n/a	2.0	1.403	Phon/Phon_run-02/stereo_PU27.wav	2.0	1	1.153
60.9881	3.819	P_C	1.0	n/a	n/a	1.0	0.768	Phon/Phon_run-02/ContS06.wav	1.0	1	1.518
64.8086	4.25	P_O	1.0	n/a	n/a	1.0	2.045	Phon/Phon_run-02/PC031.wav	1.0	1	1.795
69.062	3.662	P_C	1.0	n/a	n/a	2.0	1.64	Phon/Phon_run-02/ContS36.wav	2.0	0	2.3899999999999997
72.7312	3.823	P_O	1.0	n/a	n/a	1.0	2.617	Phon/Phon_run-02/PC023.wav	1.0	1	2.367
76.5674	4.323	P_C	1.0	n/a	n/a	1.0	0.8320000000000001	Phon/Phon_run-02/ContS24.wav	1.0	1	1.582
80.9038	3.865	P_U	2.0	n/a	n/a	2.0	1.651	Phon/Phon_run-02/PM004.wav	2.0	1	1.401
84.7733	3.875	P_O	1.0	n/a	n/a	1.0	1.642	Phon/Phon_run-02/PC007.wav	1.0	1	1.392
88.6594	4.25	P_U	2.0	n/a	n/a	2.0	2.237	Phon/Phon_run-02/PM011.wav	2.0	1	1.987
92.9126	4.362	P_C	1.0	n/a	n/a	1.0	0.5770000000000001	Phon/Phon_run-02/ContS30.wav	1.0	1	1.327
97.2825	3.875	P_O	1.0	n/a	n/a	n/a	n/a	Phon/Phon_run-02/PC030.wav	n/a	0	n/a
101.1687	3.3360000000000003	P_R	1.0	n/a	n/a	1.0	1.4	Phon/Phon_run-02/stereo_PR05.wav	1.0	1	1.15
104.5077	4.113	P_U	2.0	n/a	n/a	2.0	1.817	Phon/Phon_run-02/stereo_PU01.wav	2.0	1	1.567
108.6273	4.1739999999999995	P_U	2.0	n/a	n/a	2.0	2.131	Phon/Phon_run-02/PM029.wav	2.0	1	1.8809999999999998
112.8137	3.4539999999999997	P_C	1.0	n/a	n/a	1.0	1.136	Phon/Phon_run-02/ContS08.wav	1.0	1	1.886
116.2828	3.446	P_R	1.0	n/a	n/a	n/a	n/a	Phon/Phon_run-02/stereo_PR30.wav	n/a	0	n/a
119.7352	3.85	P_R	1.0	n/a	n/a	1.0	1.8359999999999999	Phon/Phon_run-02/stereo_PR07.wav	1.0	1	1.586
123.588	3.438	P_U	2.0	n/a	n/a	2.0	1.6380000000000001	Phon/Phon_run-02/stereo_PU02.wav	2.0	1	1.388
127.0406	3.915	P_C	1.0	n/a	n/a	1.0	0.586	Phon/Phon_run-02/ContS20.wav	1.0	1	1.3359999999999999
130.9601	3.487	P_U	2.0	n/a	n/a	2.0	1.796	Phon/Phon_run-02/PM021.wav	2.0	1	1.546
134.46200000000002	3.965	P_C	1.0	n/a	n/a	1.0	1.785	Phon/Phon_run-02/ContS26.wav	1.0	1	2.535
138.4315	3.792	P_R	1.0	n/a	n/a	1.0	1.935	Phon/Phon_run-02/stereo_PR31.wav	1.0	1	1.685
142.2343	4.135	P_O	1.0	n/a	n/a	2.0	1.825	Phon/Phon_run-02/PC024.wav	2.0	0	1.575
146.3717	3.875	P_U	2.0	n/a	n/a	2.0	1.5490000000000002	Phon/Phon_run-02/PM010.wav	2.0	1	1.2990000000000002
150.2579	3.875	P_O	1.0	n/a	n/a	1.0	2.135	Phon/Phon_run-02/PC015.wav	1.0	1	1.8849999999999998
154.144	4.245	P_C	1.0	n/a	n/a	1.0	1.287	Phon/Phon_run-02/ContS14.wav	1.0	1	2.037
158.3971	3.854	P_R	1.0	n/a	n/a	1.0	2.26	Phon/Phon_run-02/stereo_PR14.wav	1.0	1	2.01
162.2662	4.239	P_O	1.0	n/a	n/a	1.0	2.4459999999999997	Phon/Phon_run-02/PC008.wav	1.0	1	2.196
166.5192	4.25	P_U	2.0	n/a	n/a	2.0	2.48	Phon/Phon_run-02/stereo_PU11.wav	2.0	1	2.23
170.7726	3.523	P_C	1.0	n/a	n/a	1.0	1.709	Phon/Phon_run-02/ContS18.wav	1.0	1	2.459
174.3085	3.429	P_O	1.0	n/a	n/a	n/a	n/a	Phon/Phon_run-02/PC006.wav	1.0	1	2.634
177.7443	4.18	P_R	1.0	1.0	0.205	1.0	1.806	Phon/Phon_run-02/stereo_PR32.wav	1.0	1	1.556
181.9307	4.104	P_R	1.0	n/a	n/a	1.0	1.6569999999999998	Phon/Phon_run-02/stereo_PR24.wav	1.0	1	1.4069999999999998
