onset	duration	trial_type	correct	window1_response	window1_RT	window2_response	window2_RT	stim_file	calculated_response	calculated_accuracy	calculated_RT
1.0925	3.4539999999999997	P_R	1.0	n/a	n/a	1.0	1.325	Phon/Phon_run-01/stereo_PR01.wav	1.0	1	1.075
4.5615	3.767	P_O	1.0	n/a	n/a	1.0	1.329	Phon/Phon_run-01/PC018.wav	1.0	1	1.079
8.3317	3.391	P_O	1.0	n/a	n/a	1.0	1.6969999999999998	Phon/Phon_run-01/PC009.wav	1.0	1	1.4469999999999998
11.7341	4.374	P_C	1.0	n/a	n/a	1.0	0.856	Phon/Phon_run-01/ContS11.wav	1.0	1	1.6059999999999999
16.1207	3.345	P_U	2.0	n/a	n/a	2.0	1.666	Phon/Phon_run-01/PM002.wav	2.0	1	1.416
19.473	4.4510000000000005	P_C	1.0	n/a	n/a	1.0	0.308	Phon/Phon_run-01/ContS21.wav	1.0	1	1.058
23.9275	4.382	P_O	1.0	n/a	n/a	1.0	2.23	Phon/Phon_run-01/PC005.wav	1.0	1	1.98
28.314	3.3	P_U	2.0	n/a	n/a	2.0	1.9169999999999998	Phon/Phon_run-01/stereo_PU26.wav	2.0	1	1.667
31.6165	4.324	P_C	1.0	n/a	n/a	1.0	0.526	Phon/Phon_run-01/ContS03.wav	1.0	1	1.276
35.9529	4.378	P_R	1.0	n/a	n/a	1.0	1.604	Phon/Phon_run-01/stereo_PR29.wav	1.0	1	1.354
40.3393	3.4810000000000003	P_U	2.0	n/a	n/a	2.0	1.515	Phon/Phon_run-01/PM020.wav	2.0	1	1.265
43.8252	4.393	P_O	1.0	n/a	n/a	2.0	2.101	Phon/Phon_run-01/PC027.wav	2.0	0	1.851
48.2284	4.4	P_R	1.0	n/a	n/a	1.0	1.4269999999999998	Phon/Phon_run-01/stereo_PR11.wav	1.0	1	1.1769999999999998
52.6316	3.884	P_C	1.0	n/a	n/a	1.0	0.276	Phon/Phon_run-01/ContS05.wav	1.0	1	1.026
56.5186	3.891	P_U	2.0	n/a	n/a	2.0	1.3259999999999998	Phon/Phon_run-01/stereo_PU28.wav	2.0	1	1.0759999999999998
60.4213	4.4	P_O	1.0	n/a	n/a	2.0	2.375	Phon/Phon_run-01/PC013.wav	2.0	0	2.125
64.8247	3.513	P_C	1.0	n/a	n/a	1.0	0.373	Phon/Phon_run-01/ContS17.wav	1.0	1	1.123
68.3439	4.4	P_U	2.0	n/a	n/a	2.0	1.4980000000000002	Phon/Phon_run-01/PM027.wav	2.0	1	1.2480000000000002
72.7471	4.4	P_O	1.0	n/a	n/a	2.0	2.0180000000000002	Phon/Phon_run-01/PC021.wav	2.0	0	1.7679999999999998
77.1504	4.496	P_C	1.0	n/a	n/a	1.0	0.262	Phon/Phon_run-01/ContS29.wav	1.0	1	1.012
81.6536	3.3680000000000003	P_R	1.0	n/a	n/a	1.0	1.355	Phon/Phon_run-01/stereo_PR25.wav	1.0	1	1.105
85.0239	3.95	P_O	1.0	n/a	n/a	2.0	1.821	Phon/Phon_run-01/PC012.wav	2.0	0	1.571
88.9768	3.95	P_U	2.0	n/a	n/a	2.0	2.327	Phon/Phon_run-01/PM003.wav	2.0	1	2.077
92.9297	3.939	P_O	1.0	n/a	n/a	1.0	2.094	Phon/Phon_run-01/PC004.wav	1.0	1	1.8439999999999999
96.8826	3.59	P_C	1.0	n/a	n/a	1.0	0.306	Phon/Phon_run-01/ContS27.wav	1.0	1	1.056
100.4851	4.296	P_U	2.0	n/a	n/a	2.0	2.061	Phon/Phon_run-01/stereo_PU21.wav	2.0	1	1.811
104.7882	3.862	P_R	1.0	n/a	n/a	2.0	1.845	Phon/Phon_run-01/stereo_PR26.wav	2.0	0	1.595
108.6576	3.95	P_O	1.0	n/a	n/a	2.0	1.585	Phon/Phon_run-01/PC026.wav	2.0	0	1.335
112.6107	3.5	P_O	1.0	n/a	n/a	n/a	n/a	Phon/Phon_run-01/PC025.wav	n/a	0	n/a
116.1133	4.013	P_C	1.0	n/a	n/a	1.0	0.188	Phon/Phon_run-01/ContS23.wav	1.0	1	0.938
120.1329	3.792	P_R	1.0	n/a	n/a	1.0	1.9509999999999998	Phon/Phon_run-01/stereo_PR18.wav	1.0	1	1.701
123.9359	3.346	P_U	2.0	n/a	n/a	n/a	n/a	Phon/Phon_run-01/stereo_PU19.wav	n/a	0	n/a
127.2885	3.891	P_R	1.0	n/a	n/a	1.0	1.3419999999999999	Phon/Phon_run-01/stereo_PR03.wav	1.0	1	1.092
131.1913	3.355	P_O	1.0	n/a	n/a	2.0	1.456	Phon/Phon_run-01/PC003.wav	2.0	0	1.206
134.5604	3.951	P_C	1.0	n/a	n/a	1.0	1.761	Phon/Phon_run-01/ContS15.wav	1.0	1	2.511
138.5144	3.74	P_U	2.0	n/a	n/a	2.0	1.798	Phon/Phon_run-01/stereo_PU16.wav	2.0	1	1.548
142.2671	3.95	P_R	1.0	n/a	n/a	1.0	1.6480000000000001	Phon/Phon_run-01/stereo_PR10.wav	1.0	1	1.398
146.22	3.464	P_C	1.0	n/a	n/a	1.0	0.382	Phon/Phon_run-01/ContS09.wav	1.0	1	1.1320000000000001
149.6892	4.275	P_R	1.0	n/a	n/a	1.0	1.504	Phon/Phon_run-01/stereo_PR04.wav	1.0	1	1.254
153.9756	3.95	P_U	2.0	n/a	n/a	2.0	1.4580000000000002	Phon/Phon_run-01/PM023.wav	2.0	1	1.2080000000000002
157.9284	4.4	P_U	2.0	n/a	n/a	2.0	1.944	Phon/Phon_run-01/PM001.wav	2.0	1	1.694
162.3319	3.665	P_C	1.0	n/a	n/a	1.0	0.306	Phon/Phon_run-01/ContS35.wav	1.0	1	1.056
166.0011	3.463	P_O	1.0	n/a	n/a	2.0	2.094	Phon/Phon_run-01/PC017.wav	2.0	0	1.8439999999999999
169.4703	4.332	P_R	1.0	n/a	n/a	1.0	1.331	Phon/Phon_run-01/stereo_PR19.wav	1.0	1	1.081
173.8067	4.083	P_C	1.0	n/a	n/a	1.0	0.898	Phon/Phon_run-01/ContS33.wav	1.0	1	1.6480000000000001
177.893	3.5	P_R	1.0	n/a	n/a	1.0	2.112	Phon/Phon_run-01/stereo_PR17.wav	1.0	1	1.862
181.3956	4.2669999999999995	P_U	2.0	n/a	n/a	2.0	2.253	Phon/Phon_run-01/PM009.wav	2.0	1	2.003
185.6658	3.4389999999999996	P_R	1.0	n/a	n/a	1.0	1.46	Phon/Phon_run-01/stereo_PR09.wav	1.0	1	1.21
