onset	duration	trial_type	correct	window1_response	window1_RT	window2_response	window2_RT	stim_file	calculated_response	calculated_accuracy	calculated_RT
1.067	7.034	SP_W	1.0	n/a	n/a	1.0	4.218	Plaus/Plaus_run-01/stereo_PW85.wav	1.0	1	2.0709999999999997
8.106	5.641	SP_I	2.0	n/a	n/a	2.0	2.813	Plaus/Plaus_run-01/stereo_PI11.wav	2.0	1	1.893
13.76	6.77	SP_C	1.0	1.0	0.708	1.0	1.4580000000000002	Plaus/Plaus_run-01/CoM08b.wav	1.0	1	0.708
20.532	7.327000000000001	SP_W	1.0	n/a	n/a	1.0	4.777	Plaus/Plaus_run-01/stereo_PW72.wav	1.0	1	2.797
27.871	6.145	SP_C	1.0	n/a	n/a	1.0	0.428	Plaus/Plaus_run-01/CoM05d.wav	1.0	1	1.178
34.026	5.181	SP_I	2.0	n/a	n/a	2.0	2.9130000000000003	Plaus/Plaus_run-01/stereo_PI65.wav	2.0	1	1.971
39.213	5.092	SP_S	1.0	n/a	n/a	1.0	2.992	Plaus/Plaus_run-01/stereo_PC13.wav	1.0	1	1.9289999999999998
44.317	7.355	SP_C	1.0	n/a	n/a	1.0	0.198	Plaus/Plaus_run-01/CoM06l.wav	1.0	1	0.948
51.673	7.47	SP_I	2.0	n/a	n/a	2.0	4.288	Plaus/Plaus_run-01/stereo_PI90.wav	2.0	1	2.1170000000000004
59.145	7.399	SP_S	1.0	n/a	n/a	1.0	4.274	Plaus/Plaus_run-01/stereo_PC35.wav	1.0	1	2.007
66.551	5.685	SP_S	1.0	n/a	n/a	1.0	2.937	Plaus/Plaus_run-01/stereo_PC47.wav	1.0	1	1.9279999999999997
72.238	5.669	SP_W	1.0	n/a	n/a	n/a	n/a	Plaus/Plaus_run-01/stereo_PW19.wav	n/a	0	n/a
77.90899999999998	7.9	SP_C	1.0	n/a	n/a	1.0	0.127	Plaus/Plaus_run-01/CoM03l.wav	1.0	1	0.877
85.815	5.145	SP_I	2.0	n/a	n/a	2.0	2.9810000000000003	Plaus/Plaus_run-01/stereo_PI09.wav	2.0	1	1.9730000000000005
90.969	6.9170000000000025	SP_W	1.0	n/a	n/a	1.0	3.88	Plaus/Plaus_run-01/stereo_PW30.wav	1.0	1	1.7599999999999998
97.891	5.738	SP_S	1.0	n/a	n/a	2.0	3.946	Plaus/Plaus_run-01/stereo_PC14.wav	2.0	0	2.7750000000000004
103.629	6.276	SP_W	1.0	n/a	n/a	1.0	3.335	Plaus/Plaus_run-01/stereo_PW50.wav	1.0	1	2.513
109.917	5.49	SP_C	1.0	n/a	n/a	1.0	0.075	Plaus/Plaus_run-01/CoM03d.wav	1.0	1	0.825
115.421	5.7	SP_I	2.0	n/a	n/a	2.0	3.103	Plaus/Plaus_run-01/stereo_PI67.wav	2.0	1	2.212
121.126	7.237	SP_S	1.0	n/a	n/a	1.0	4.131	Plaus/Plaus_run-01/stereo_PC68.wav	1.0	1	2.165
128.365	6.49	SP_C	1.0	n/a	n/a	1.0	0.14	Plaus/Plaus_run-01/CoM03b.wav	1.0	1	0.89
134.87	6.25	SP_W	1.0	n/a	n/a	1.0	3.167	Plaus/Plaus_run-01/stereo_PW61.wav	1.0	1	2.187
141.124	6.952999999999999	SP_I	2.0	n/a	n/a	2.0	4.22	Plaus/Plaus_run-01/stereo_PI32.wav	2.0	1	2.0549999999999997
148.08	7.085	SP_C	1.0	n/a	n/a	1.0	0.39899999999999997	Plaus/Plaus_run-01/CoM02e.wav	1.0	1	1.149
155.16899999999995	6.3610000000000015	SP_S	1.0	n/a	n/a	1.0	3.8680000000000003	Plaus/Plaus_run-01/stereo_PC24.wav	1.0	1	1.6099999999999999
161.54	5.1110000000000015	SP_W	1.0	n/a	n/a	1.0	3.1710000000000003	Plaus/Plaus_run-01/stereo_PW53.wav	1.0	1	2.1570000000000005
166.66099999999997	6.2860000000000005	SP_I	2.0	n/a	n/a	2.0	3.965	Plaus/Plaus_run-01/stereo_PI42.wav	2.0	1	1.7690000000000001
172.949	6.577000000000001	SP_S	1.0	n/a	n/a	1.0	3.279	Plaus/Plaus_run-01/stereo_PC57.wav	1.0	1	2.0839999999999996
179.537	5.273	SP_W	1.0	n/a	n/a	1.0	3.6289999999999996	Plaus/Plaus_run-01/stereo_PW18.wav	1.0	1	2.4619999999999997
184.825	5.77	SP_C	1.0	n/a	n/a	1.0	0.281	Plaus/Plaus_run-01/CoM09b.wav	1.0	1	1.0310000000000001
190.596	6.731	SP_S	1.0	n/a	n/a	1.0	3.905	Plaus/Plaus_run-01/stereo_PC26.wav	1.0	1	1.8049999999999997
197.334	7.212999999999999	SP_I	2.0	n/a	n/a	2.0	4.227	Plaus/Plaus_run-01/stereo_PI33.wav	2.0	1	2.244
204.556	5.181	SP_S	1.0	n/a	n/a	1.0	2.9760000000000004	Plaus/Plaus_run-01/stereo_PC01.wav	1.0	1	2.0350000000000006
209.74400000000003	6.238	SP_S	1.0	n/a	n/a	1.0	3.9939999999999998	Plaus/Plaus_run-01/stereo_PC36.wav	1.0	1	1.948
215.982	7.73	SP_C	1.0	n/a	n/a	1.0	0.145	Plaus/Plaus_run-01/CoM10e.wav	1.0	1	0.895
223.721	6.843	SP_I	2.0	n/a	n/a	2.0	4.229	Plaus/Plaus_run-01/stereo_PI45.wav	2.0	1	2.1020000000000003
230.576	6.101	SP_W	1.0	n/a	n/a	1.0	4.753	Plaus/Plaus_run-01/stereo_PW28.wav	1.0	1	2.8209999999999997
236.681	7.419	SP_W	1.0	n/a	n/a	1.0	4.5889999999999995	Plaus/Plaus_run-01/stereo_PW86.wav	1.0	1	2.553000000000001
244.103	6.54	SP_C	1.0	n/a	n/a	1.0	0.295	Plaus/Plaus_run-01/CoM05e.wav	1.0	1	1.045
250.659	6.247000000000001	SP_I	2.0	n/a	n/a	2.0	3.153	Plaus/Plaus_run-01/stereo_PI12.wav	2.0	1	2.282
