onset	duration	trial_type	correct	window1_response	window1_RT	window2_response	window2_RT	stim_file	calculated_response	calculated_accuracy	calculated_RT
1.084	3.5	P_R	1.0	n/a	n/a	1.0	1.286	Phon/Phon_run-02/stereo_PR20.wav	1.0	1	1.036
4.586	4.235	P_O	1.0	n/a	n/a	1.0	1.319	Phon/Phon_run-02/PC034.wav	1.0	1	1.069
8.823	3.375	P_R	1.0	n/a	n/a	1.0	1.179	Phon/Phon_run-02/stereo_PR13.wav	1.0	1	0.929
12.209000000000001	3.474	P_C	1.0	1.0	0.748	1.0	0.7659999999999999	Phon/Phon_run-02/ContS12.wav	1.0	1	0.748
15.695	3.875	P_U	2.0	n/a	n/a	2.0	1.11	Phon/Phon_run-02/PM025.wav	2.0	1	0.8600000000000001
19.581	3.726	P_R	1.0	n/a	n/a	1.0	1.155	Phon/Phon_run-02/stereo_PR22.wav	1.0	1	0.905
23.316999999999997	3.451	P_O	1.0	n/a	n/a	1.0	1.4080000000000001	Phon/Phon_run-02/PC014.wav	1.0	1	1.158
26.77	3.779	P_C	1.0	n/a	n/a	1.0	0.255	Phon/Phon_run-02/ContS02.wav	1.0	1	1.005
30.55599999999999	3.821	P_U	2.0	n/a	n/a	2.0	1.291	Phon/Phon_run-02/stereo_PU18.wav	2.0	1	1.041
34.393	3.49	P_U	2.0	n/a	n/a	2.0	2.1919999999999997	Phon/Phon_run-02/stereo_PU12.wav	2.0	1	1.9420000000000002
37.895	4.38	P_C	1.0	n/a	n/a	1.0	0.336	Phon/Phon_run-02/ContS32.wav	1.0	1	1.086
42.282	4.0969999999999995	P_R	1.0	n/a	n/a	1.0	1.061	Phon/Phon_run-02/stereo_PR16.wav	1.0	1	0.8109999999999999
46.385	3.5	P_O	1.0	n/a	n/a	1.0	1.329	Phon/Phon_run-02/PC022.wav	1.0	1	1.079
49.88800000000001	4.0760000000000005	P_R	1.0	n/a	n/a	1.0	1.188	Phon/Phon_run-02/stereo_PR08.wav	1.0	1	0.938
53.974	3.5	P_O	1.0	n/a	n/a	1.0	1.284	Phon/Phon_run-02/PC028.wav	1.0	1	1.034
57.477	3.5	P_U	2.0	n/a	n/a	2.0	1.73	Phon/Phon_run-02/stereo_PU27.wav	2.0	1	1.48
60.98	3.819	P_C	1.0	1.0	0.655	1.0	0.5820000000000001	Phon/Phon_run-02/ContS06.wav	1.0	1	0.655
64.79899999999999	4.25	P_O	1.0	n/a	n/a	1.0	1.382	Phon/Phon_run-02/PC031.wav	1.0	1	1.132
69.053	3.662	P_C	1.0	n/a	n/a	1.0	0.127	Phon/Phon_run-02/ContS36.wav	1.0	1	0.877
72.722	3.823	P_O	1.0	n/a	n/a	1.0	1.129	Phon/Phon_run-02/PC023.wav	1.0	1	0.879
76.558	4.323	P_C	1.0	1.0	0.6609999999999999	1.0	0.738	Phon/Phon_run-02/ContS24.wav	1.0	1	0.6609999999999999
80.895	3.865	P_U	2.0	n/a	n/a	2.0	1.693	Phon/Phon_run-02/PM004.wav	2.0	1	1.443
84.765	3.875	P_O	1.0	n/a	n/a	1.0	1.016	Phon/Phon_run-02/PC007.wav	1.0	1	0.766
88.65100000000002	4.25	P_U	2.0	n/a	n/a	2.0	1.3840000000000001	Phon/Phon_run-02/PM011.wav	2.0	1	1.134
92.904	4.362	P_C	1.0	n/a	n/a	1.0	1.074	Phon/Phon_run-02/ContS30.wav	1.0	1	1.824
97.274	3.875	P_O	1.0	n/a	n/a	2.0	1.735	Phon/Phon_run-02/PC030.wav	2.0	0	1.485
101.161	3.3360000000000003	P_R	1.0	n/a	n/a	1.0	1.315	Phon/Phon_run-02/stereo_PR05.wav	1.0	1	1.065
104.49700000000001	4.113	P_U	2.0	n/a	n/a	2.0	1.646	Phon/Phon_run-02/stereo_PU01.wav	2.0	1	1.396
108.617	4.1739999999999995	P_U	2.0	n/a	n/a	2.0	1.703	Phon/Phon_run-02/PM029.wav	2.0	1	1.453
112.803	3.4539999999999997	P_C	1.0	n/a	n/a	1.0	0.001	Phon/Phon_run-02/ContS08.wav	1.0	1	0.751
116.272	3.446	P_R	1.0	n/a	n/a	1.0	1.569	Phon/Phon_run-02/stereo_PR30.wav	1.0	1	1.319
119.725	3.85	P_R	1.0	n/a	n/a	2.0	2.688	Phon/Phon_run-02/stereo_PR07.wav	2.0	0	2.438
123.57799999999999	3.438	P_U	2.0	n/a	n/a	n/a	n/a	Phon/Phon_run-02/stereo_PU02.wav	n/a	0	n/a
127.031	3.915	P_C	1.0	1.0	0.735	1.0	0.7659999999999999	Phon/Phon_run-02/ContS20.wav	1.0	1	0.735
130.95	3.487	P_U	2.0	n/a	n/a	2.0	2.149	Phon/Phon_run-02/PM021.wav	2.0	1	1.899
134.453	3.965	P_C	1.0	1.0	0.6920000000000001	1.0	0.7240000000000001	Phon/Phon_run-02/ContS26.wav	1.0	1	0.6920000000000001
138.423	3.792	P_R	1.0	n/a	n/a	1.0	1.5830000000000002	Phon/Phon_run-02/stereo_PR31.wav	1.0	1	1.3330000000000002
142.226	4.135	P_O	1.0	n/a	n/a	1.0	1.531	Phon/Phon_run-02/PC024.wav	1.0	1	1.281
146.362	3.875	P_U	2.0	n/a	n/a	1.0	1.626	Phon/Phon_run-02/PM010.wav	1.0	0	1.376
150.249	3.875	P_O	1.0	n/a	n/a	1.0	1.1059999999999999	Phon/Phon_run-02/PC015.wav	1.0	1	0.8560000000000001
154.135	4.245	P_C	1.0	n/a	n/a	1.0	0.21	Phon/Phon_run-02/ContS14.wav	1.0	1	0.96
158.388	3.854	P_R	1.0	n/a	n/a	1.0	1.101	Phon/Phon_run-02/stereo_PR14.wav	1.0	1	0.851
162.25799999999995	4.239	P_O	1.0	n/a	n/a	1.0	1.214	Phon/Phon_run-02/PC008.wav	1.0	1	0.964
166.511	4.25	P_U	2.0	n/a	n/a	2.0	1.6159999999999999	Phon/Phon_run-02/stereo_PU11.wav	2.0	1	1.366
170.764	3.523	P_C	1.0	n/a	n/a	1.0	0.057999999999999996	Phon/Phon_run-02/ContS18.wav	1.0	1	0.808
174.3	3.429	P_O	1.0	n/a	n/a	1.0	1.2770000000000001	Phon/Phon_run-02/PC006.wav	1.0	1	1.027
177.736	4.18	P_R	1.0	n/a	n/a	1.0	1.268	Phon/Phon_run-02/stereo_PR32.wav	1.0	1	1.018
181.923	4.104	P_R	1.0	n/a	n/a	1.0	1.469	Phon/Phon_run-02/stereo_PR24.wav	1.0	1	1.219
