onset	duration	trial_type	correct	window1_response	window1_RT	window2_response	window2_RT	stim_file	calculated_response	calculated_accuracy	calculated_RT
1.0964	7.034	SP_W	1.0	n/a	n/a	1.0	4.735	Plaus/Plaus_run-01/stereo_PW85.wav	1.0	1	2.588
8.1359	5.641	SP_I	2.0	n/a	n/a	n/a	n/a	Plaus/Plaus_run-01/stereo_PI11.wav	n/a	0	n/a
13.79	6.77	SP_C	1.0	2.0	0.02	1.0	0.452	Plaus/Plaus_run-01/CoM08b.wav	2.0	0	0.02
20.5628	7.327000000000001	SP_W	1.0	n/a	n/a	1.0	3.7439999999999998	Plaus/Plaus_run-01/stereo_PW72.wav	1.0	1	1.7640000000000002
27.9014	6.145	SP_C	1.0	n/a	n/a	1.0	0.68	Plaus/Plaus_run-01/CoM05d.wav	1.0	1	1.4300000000000002
34.0559	5.181	SP_I	2.0	n/a	n/a	1.0	3.2439999999999998	Plaus/Plaus_run-01/stereo_PI65.wav	1.0	0	2.302
39.243	5.092	SP_S	1.0	n/a	n/a	1.0	3.136	Plaus/Plaus_run-01/stereo_PC13.wav	1.0	1	2.073
44.3468	7.355	SP_C	1.0	n/a	n/a	1.0	1.215	Plaus/Plaus_run-01/CoM06l.wav	1.0	1	1.965
51.7032	7.47	SP_I	2.0	n/a	n/a	1.0	4.928	Plaus/Plaus_run-01/stereo_PI90.wav	1.0	0	2.757
59.1764	7.399	SP_S	1.0	n/a	n/a	1.0	4.388	Plaus/Plaus_run-01/stereo_PC35.wav	1.0	1	2.121
66.5818	5.685	SP_S	1.0	n/a	n/a	1.0	3.887	Plaus/Plaus_run-01/stereo_PC47.wav	1.0	1	2.878
72.2704	5.669	SP_W	1.0	n/a	n/a	1.0	4.254	Plaus/Plaus_run-01/stereo_PW19.wav	1.0	1	3.2479999999999993
77.9423	7.9	SP_C	1.0	n/a	n/a	1.0	1.28	Plaus/Plaus_run-01/CoM03l.wav	1.0	1	2.0300000000000002
85.8483	5.145	SP_I	2.0	n/a	n/a	1.0	1.58	Plaus/Plaus_run-01/stereo_PI09.wav	1.0	0	0.5720000000000003
91.0021	6.9170000000000025	SP_W	1.0	n/a	n/a	n/a	n/a	Plaus/Plaus_run-01/stereo_PW30.wav	n/a	0	n/a
97.9243	5.738	SP_S	1.0	n/a	n/a	n/a	n/a	Plaus/Plaus_run-01/stereo_PC14.wav	1.0	1	4.549999999999999
103.6662	6.276	SP_W	1.0	1.0	0.733	1.0	0.541	Plaus/Plaus_run-01/stereo_PW50.wav	n/a	0	n/a
109.954	5.49	SP_C	1.0	n/a	n/a	1.0	1.146	Plaus/Plaus_run-01/CoM03d.wav	1.0	1	1.896
115.458	5.7	SP_I	2.0	n/a	n/a	1.0	3.275	Plaus/Plaus_run-01/stereo_PI67.wav	1.0	0	2.384
121.1625	7.237	SP_S	1.0	n/a	n/a	n/a	n/a	Plaus/Plaus_run-01/stereo_PC68.wav	n/a	0	n/a
128.4022	6.49	SP_C	1.0	n/a	n/a	1.0	0.7759999999999999	Plaus/Plaus_run-01/CoM03b.wav	1.0	1	1.5259999999999998
134.9065	6.25	SP_W	1.0	n/a	n/a	1.0	3.324	Plaus/Plaus_run-01/stereo_PW61.wav	1.0	1	2.344
141.161	6.952999999999999	SP_I	2.0	n/a	n/a	1.0	3.8080000000000003	Plaus/Plaus_run-01/stereo_PI32.wav	1.0	0	1.6429999999999998
148.1173	7.085	SP_C	1.0	n/a	n/a	1.0	2.415	Plaus/Plaus_run-01/CoM02e.wav	1.0	1	3.165
155.2068	6.3610000000000015	SP_S	1.0	n/a	n/a	1.0	3.77	Plaus/Plaus_run-01/stereo_PC24.wav	1.0	1	1.512
161.5781	5.1110000000000015	SP_W	1.0	n/a	n/a	n/a	n/a	Plaus/Plaus_run-01/stereo_PW53.wav	n/a	0	n/a
166.6985	6.2860000000000005	SP_I	2.0	n/a	n/a	1.0	3.969	Plaus/Plaus_run-01/stereo_PI42.wav	1.0	0	1.7730000000000001
172.9876	6.577000000000001	SP_S	1.0	n/a	n/a	n/a	n/a	Plaus/Plaus_run-01/stereo_PC57.wav	n/a	0	n/a
179.5757	5.273	SP_W	1.0	n/a	n/a	n/a	n/a	Plaus/Plaus_run-01/stereo_PW18.wav	n/a	0	n/a
184.8629	5.77	SP_C	1.0	n/a	n/a	1.0	2.552	Plaus/Plaus_run-01/CoM09b.wav	1.0	1	3.302
190.6348	6.731	SP_S	1.0	n/a	n/a	1.0	3.87	Plaus/Plaus_run-01/stereo_PC26.wav	1.0	1	1.77
197.3731	7.212999999999999	SP_I	2.0	n/a	n/a	n/a	n/a	Plaus/Plaus_run-01/stereo_PI33.wav	n/a	0	n/a
204.595	5.181	SP_S	1.0	n/a	n/a	n/a	n/a	Plaus/Plaus_run-01/stereo_PC01.wav	n/a	0	n/a
209.7821	6.238	SP_S	1.0	n/a	n/a	1.0	2.15	Plaus/Plaus_run-01/stereo_PC36.wav	1.0	1	0.10399999999999965
216.0211	7.73	SP_C	1.0	n/a	n/a	1.0	0.831	Plaus/Plaus_run-01/CoM10e.wav	1.0	1	1.581
223.7601	6.843	SP_I	2.0	n/a	n/a	2.0	3.998	Plaus/Plaus_run-01/stereo_PI45.wav	2.0	1	1.8710000000000004
230.615	6.101	SP_W	1.0	n/a	n/a	n/a	n/a	Plaus/Plaus_run-01/stereo_PW28.wav	n/a	0	n/a
236.7206	7.419	SP_W	1.0	n/a	n/a	n/a	n/a	Plaus/Plaus_run-01/stereo_PW86.wav	n/a	0	n/a
244.1438	6.54	SP_C	1.0	n/a	n/a	1.0	0.763	Plaus/Plaus_run-01/CoM05e.wav	1.0	1	1.513
250.6981	6.247000000000001	SP_I	2.0	n/a	n/a	1.0	3.279	Plaus/Plaus_run-01/stereo_PI12.wav	1.0	0	2.408
