onset	duration	trial_type	correct	window1_response	window1_RT	window2_response	window2_RT	stim_file	calculated_response	calculated_accuracy	calculated_RT
1.067	4.2010000000000005	S_U	2.0	n/a	n/a	2.0	1.516	Sem/Sem_run-02/stereo_1SU33A0.wav	2.0	1	1.266
5.27	3.486	S_U	2.0	n/a	n/a	2.0	1.306	Sem/Sem_run-02/stereo_2SU85A0.wav	2.0	1	1.056
8.756	3.8539999999999996	S_H	1.0	n/a	n/a	1.0	1.235	Sem/Sem_run-02/stereo_2SH50A0.wav	1.0	1	0.985
12.626	3.454	S_C	1.0	n/a	n/a	1.0	0.797	Sem/Sem_run-02/ContS08.wav	1.0	1	1.5470000000000002
16.095	4.33	S_H	1.0	n/a	n/a	1.0	1.249	Sem/Sem_run-02/stereo_1SH10A0.wav	1.0	1	0.9990000000000001
20.432	3.872	S_L	1.0	n/a	n/a	1.0	1.639	Sem/Sem_run-02/stereo_2SL61A0.wav	1.0	1	1.389
24.318	3.885	S_L	1.0	n/a	n/a	1.0	1.446	Sem/Sem_run-02/stereo_1SL23A0.wav	1.0	1	1.196
28.205	4.2	S_U	2.0	n/a	n/a	2.0	1.764	Sem/Sem_run-02/stereo_1SU42A0.wav	2.0	1	1.514
32.408	3.321	S_L	1.0	n/a	n/a	1.0	1.206	Sem/Sem_run-02/stereo_1SL16A0.wav	1.0	1	0.956
35.744	3.59	S_C	1.0	n/a	n/a	1.0	1.171	Sem/Sem_run-02/ContS26.wav	1.0	1	1.921
39.346	4.4	S_H	1.0	n/a	n/a	1.0	1.849	Sem/Sem_run-02/stereo_2SH60A0.wav	1.0	1	1.599
43.75	4.311	S_L	1.0	n/a	n/a	2.0	1.703	Sem/Sem_run-02/stereo_2SL75A0.wav	2.0	0	1.453
48.07	3.912	S_H	1.0	n/a	n/a	1.0	1.606	Sem/Sem_run-02/stereo_2SH59A0.wav	1.0	1	1.356
51.989	4.4	S_U	2.0	n/a	n/a	1.0	2.052	Sem/Sem_run-02/stereo_2SU84A0.wav	1.0	0	1.802
56.393	3.4210000000000003	S_U	2.0	n/a	n/a	2.0	1.55	Sem/Sem_run-02/stereo_1SU43A0.wav	2.0	1	1.3
59.82899999999999	3.8539999999999996	S_C	1.0	n/a	n/a	1.0	1.035	Sem/Sem_run-02/ContS02.wav	1.0	1	1.785
63.698	4.37	S_L	1.0	n/a	n/a	2.0	1.759	Sem/Sem_run-02/stereo_1SL19A0.wav	2.0	0	1.509
68.068	3.862	S_L	1.0	n/a	n/a	1.0	1.517	Sem/Sem_run-02/stereo_1SL18A0.wav	1.0	1	1.267
71.938	4.462	S_C	1.0	n/a	n/a	1.0	1.917	Sem/Sem_run-02/ContS22.wav	1.0	1	2.667
76.408	3.406	S_L	1.0	n/a	n/a	1.0	1.596	Sem/Sem_run-02/stereo_1SL21A0.wav	1.0	1	1.346
79.827	3.355	S_U	2.0	n/a	n/a	1.0	1.496	Sem/Sem_run-02/stereo_1SU36A0.wav	1.0	0	1.246
83.196	4.324	S_C	1.0	n/a	n/a	1.0	1.855	Sem/Sem_run-02/ContS04.wav	1.0	1	2.605
87.53299999999999	4.253	S_L	1.0	n/a	n/a	2.0	1.4469999999999998	Sem/Sem_run-02/stereo_1SL24A0.wav	2.0	0	1.1969999999999998
91.786	3.839	S_L	1.0	n/a	n/a	1.0	1.496	Sem/Sem_run-02/stereo_2SL70A0.wav	1.0	1	1.246
95.639	4.395	S_C	1.0	n/a	n/a	1.0	1.202	Sem/Sem_run-02/ContS14.wav	1.0	1	1.952
100.043	3.8739999999999997	S_H	1.0	n/a	n/a	2.0	1.675	Sem/Sem_run-02/stereo_1SH09A0.wav	2.0	0	1.425
103.929	3.75	S_U	2.0	n/a	n/a	1.0	1.415	Sem/Sem_run-02/stereo_1SU32A0.wav	1.0	0	1.165
107.682	3.641	S_C	1.0	n/a	n/a	1.0	1.652	Sem/Sem_run-02/ContS34.wav	1.0	1	2.402
111.334	3.338	S_U	2.0	n/a	n/a	1.0	1.4169999999999998	Sem/Sem_run-02/stereo_1SU31A0.wav	1.0	0	1.1669999999999998
114.687	3.45	S_L	1.0	n/a	n/a	2.0	1.611	Sem/Sem_run-02/stereo_2SL68A0.wav	2.0	0	1.361
118.14	3.8510000000000004	S_H	1.0	n/a	n/a	1.0	1.111	Sem/Sem_run-02/stereo_1SH14A0.wav	1.0	1	0.861
121.993	3.459	S_H	1.0	n/a	n/a	1.0	1.351	Sem/Sem_run-02/stereo_1SH01A0.wav	1.0	1	1.101
125.462	3.512	S_C	1.0	n/a	n/a	1.0	1.216	Sem/Sem_run-02/ContS16.wav	1.0	1	1.966
128.981	3.489	S_H	1.0	n/a	n/a	1.0	1.336	Sem/Sem_run-02/stereo_1SH12A0.wav	1.0	1	1.086
132.484	3.8489999999999998	S_U	2.0	n/a	n/a	2.0	1.731	Sem/Sem_run-02/stereo_2SU86A0.wav	2.0	1	1.481
136.33700000000002	3.46	S_L	1.0	n/a	n/a	1.0	1.093	Sem/Sem_run-02/stereo_1SL28A0.wav	1.0	1	0.843
139.806	4.53	S_C	1.0	n/a	n/a	1.0	1.332	Sem/Sem_run-02/ContS32.wav	1.0	1	2.082
144.343	4.351	S_H	1.0	n/a	n/a	1.0	1.651	Sem/Sem_run-02/stereo_2SH52A0.wav	1.0	1	1.401
148.696	3.48	S_H	1.0	n/a	n/a	1.0	1.454	Sem/Sem_run-02/stereo_2SH47A0.wav	1.0	1	1.204
152.18200000000004	3.3	S_H	1.0	n/a	n/a	1.0	1.038	Sem/Sem_run-02/stereo_2SH53A0.wav	1.0	1	0.7879999999999999
155.485	3.847	S_U	2.0	n/a	n/a	1.0	1.661	Sem/Sem_run-02/stereo_1SU39A0.wav	1.0	0	1.411
159.338	3.923	S_C	1.0	n/a	n/a	1.0	0.688	Sem/Sem_run-02/ContS10.wav	1.0	1	1.4380000000000002
163.274	3.7510000000000003	S_U	2.0	n/a	n/a	1.0	1.178	Sem/Sem_run-02/stereo_2SU80A0.wav	1.0	0	0.9279999999999999
167.02700000000004	4.2	S_L	1.0	n/a	n/a	1.0	1.54	Sem/Sem_run-02/stereo_2SL66A0.wav	1.0	1	1.29
171.23	3.99	S_C	1.0	n/a	n/a	1.0	0.321	Sem/Sem_run-02/ContS20.wav	1.0	1	1.071
175.233	4.041	S_C	1.0	n/a	n/a	1.0	1.149	Sem/Sem_run-02/ContS28.wav	1.0	1	1.899
179.28599999999997	4.2	S_U	2.0	n/a	n/a	1.0	1.715	Sem/Sem_run-02/stereo_2SU89A0.wav	1.0	0	1.465
183.489	4.368	S_H	1.0	n/a	n/a	1.0	1.523	Sem/Sem_run-02/stereo_2SH46A0.wav	1.0	1	1.273
