onset	duration	trial_type	correct	window1_response	window1_RT	window2_response	window2_RT	stim_file	calculated_response	calculated_accuracy	calculated_RT
1.0924	3.5	P_R	1.0	n/a	n/a	1.0	1.8019999999999998	Phon/Phon_run-02/stereo_PR20.wav	1.0	1	1.552
4.595	4.235	P_O	1.0	n/a	n/a	2.0	1.834	Phon/Phon_run-02/PC034.wav	2.0	0	1.584
8.8325	3.375	P_R	1.0	n/a	n/a	1.0	1.22	Phon/Phon_run-02/stereo_PR13.wav	1.0	1	0.97
12.2183	3.474	P_C	1.0	n/a	n/a	1.0	0.11900000000000001	Phon/Phon_run-02/ContS12.wav	1.0	1	0.869
15.7041	3.875	P_U	2.0	n/a	n/a	2.0	1.83	Phon/Phon_run-02/PM025.wav	2.0	1	1.58
19.5903	3.726	P_R	1.0	n/a	n/a	1.0	1.584	Phon/Phon_run-02/stereo_PR22.wav	1.0	1	1.334
23.3263	3.451	P_O	1.0	n/a	n/a	n/a	n/a	Phon/Phon_run-02/PC014.wav	n/a	0	n/a
26.7799	3.779	P_C	1.0	n/a	n/a	1.0	0.061	Phon/Phon_run-02/ContS02.wav	1.0	1	0.8109999999999999
30.566	3.821	P_U	2.0	n/a	n/a	2.0	2.295	Phon/Phon_run-02/stereo_PU18.wav	2.0	1	2.045
34.402	3.49	P_U	2.0	n/a	n/a	n/a	n/a	Phon/Phon_run-02/stereo_PU12.wav	n/a	0	n/a
37.9046	4.38	P_C	1.0	2.0	0.24600000000000002	1.0	0.937	Phon/Phon_run-02/ContS32.wav	2.0	0	0.246
42.291000000000004	4.0969999999999995	P_R	1.0	n/a	n/a	n/a	n/a	Phon/Phon_run-02/stereo_PR16.wav	1.0	1	3.1959999999999997
46.394	3.5	P_O	1.0	1.0	0.099	n/a	n/a	Phon/Phon_run-02/PC022.wav	n/a	0	n/a
49.8966	4.0760000000000005	P_R	1.0	n/a	n/a	1.0	1.517	Phon/Phon_run-02/stereo_PR08.wav	1.0	1	1.267
53.983000000000004	3.5	P_O	1.0	n/a	n/a	n/a	n/a	Phon/Phon_run-02/PC028.wav	1.0	1	3.29
57.4856	3.5	P_U	2.0	n/a	n/a	1.0	0.04	Phon/Phon_run-02/stereo_PU27.wav	n/a	0	n/a
60.9881	3.819	P_C	1.0	n/a	n/a	1.0	0.08	Phon/Phon_run-02/ContS06.wav	1.0	1	0.83
64.8086	4.25	P_O	1.0	n/a	n/a	1.0	2.623	Phon/Phon_run-02/PC031.wav	1.0	1	2.373
69.062	3.662	P_C	1.0	n/a	n/a	1.0	0.129	Phon/Phon_run-02/ContS36.wav	1.0	1	0.879
72.7312	3.823	P_O	1.0	n/a	n/a	1.0	1.847	Phon/Phon_run-02/PC023.wav	1.0	1	1.597
76.5674	4.323	P_C	1.0	n/a	n/a	1.0	2.219	Phon/Phon_run-02/ContS24.wav	1.0	1	2.969
80.9038	3.865	P_U	2.0	n/a	n/a	2.0	1.45	Phon/Phon_run-02/PM004.wav	2.0	1	1.2
84.7733	3.875	P_O	1.0	n/a	n/a	1.0	1.86	Phon/Phon_run-02/PC007.wav	1.0	1	1.61
88.6594	4.25	P_U	2.0	n/a	n/a	2.0	2.3819999999999997	Phon/Phon_run-02/PM011.wav	2.0	1	2.132
92.9126	4.362	P_C	1.0	n/a	n/a	1.0	0.899	Phon/Phon_run-02/ContS30.wav	1.0	1	1.649
97.2825	3.875	P_O	1.0	n/a	n/a	2.0	2.02	Phon/Phon_run-02/PC030.wav	2.0	0	1.77
101.1687	3.3360000000000003	P_R	1.0	n/a	n/a	1.0	1.936	Phon/Phon_run-02/stereo_PR05.wav	1.0	1	1.686
104.5077	4.113	P_U	2.0	n/a	n/a	2.0	1.36	Phon/Phon_run-02/stereo_PU01.wav	2.0	1	1.11
108.6273	4.1739999999999995	P_U	2.0	n/a	n/a	n/a	n/a	Phon/Phon_run-02/PM029.wav	n/a	0	n/a
112.8137	3.4539999999999997	P_C	1.0	n/a	n/a	1.0	0.389	Phon/Phon_run-02/ContS08.wav	1.0	1	1.139
116.2828	3.446	P_R	1.0	n/a	n/a	1.0	1.9680000000000002	Phon/Phon_run-02/stereo_PR30.wav	1.0	1	1.718
119.7352	3.85	P_R	1.0	n/a	n/a	1.0	2.611	Phon/Phon_run-02/stereo_PR07.wav	1.0	1	2.361
123.588	3.438	P_U	2.0	n/a	n/a	2.0	1.831	Phon/Phon_run-02/stereo_PU02.wav	2.0	1	1.581
127.0406	3.915	P_C	1.0	n/a	n/a	1.0	1.412	Phon/Phon_run-02/ContS20.wav	1.0	1	2.162
130.9601	3.487	P_U	2.0	n/a	n/a	n/a	n/a	Phon/Phon_run-02/PM021.wav	n/a	0	n/a
134.46200000000002	3.965	P_C	1.0	n/a	n/a	1.0	1.486	Phon/Phon_run-02/ContS26.wav	1.0	1	2.2359999999999998
138.4315	3.792	P_R	1.0	n/a	n/a	1.0	1.999	Phon/Phon_run-02/stereo_PR31.wav	1.0	1	1.749
142.2343	4.135	P_O	1.0	n/a	n/a	1.0	1.547	Phon/Phon_run-02/PC024.wav	1.0	1	1.297
146.3717	3.875	P_U	2.0	n/a	n/a	2.0	2.532	Phon/Phon_run-02/PM010.wav	2.0	1	2.282
150.2579	3.875	P_O	1.0	n/a	n/a	1.0	1.564	Phon/Phon_run-02/PC015.wav	1.0	1	1.314
154.144	4.245	P_C	1.0	n/a	n/a	1.0	1.383	Phon/Phon_run-02/ContS14.wav	1.0	1	2.133
158.3971	3.854	P_R	1.0	n/a	n/a	1.0	2.248	Phon/Phon_run-02/stereo_PR14.wav	1.0	1	1.9980000000000002
162.2662	4.239	P_O	1.0	n/a	n/a	1.0	2.043	Phon/Phon_run-02/PC008.wav	1.0	1	1.7930000000000001
166.5192	4.25	P_U	2.0	n/a	n/a	2.0	1.719	Phon/Phon_run-02/stereo_PU11.wav	2.0	1	1.469
170.7726	3.523	P_C	1.0	n/a	n/a	1.0	0.39899999999999997	Phon/Phon_run-02/ContS18.wav	1.0	1	1.149
174.3085	3.429	P_O	1.0	n/a	n/a	1.0	1.755	Phon/Phon_run-02/PC006.wav	1.0	1	1.505
177.7443	4.18	P_R	1.0	n/a	n/a	1.0	1.598	Phon/Phon_run-02/stereo_PR32.wav	1.0	1	1.348
181.9307	4.104	P_R	1.0	n/a	n/a	1.0	2.068	Phon/Phon_run-02/stereo_PR24.wav	1.0	1	1.818
