onset	duration	trial_type	correct	window1_response	window1_RT	window2_response	window2_RT	stim_file	calculated_response	calculated_accuracy	calculated_RT
1.085	4.2010000000000005	S_U	2.0	n/a	n/a	2.0	1.817	Sem/Sem_run-02/stereo_1SU33A0.wav	2.0	1	1.567
5.287999999999999	3.486	S_U	2.0	n/a	n/a	2.0	1.4809999999999999	Sem/Sem_run-02/stereo_2SU85A0.wav	2.0	1	1.231
8.774	3.8539999999999996	S_H	1.0	n/a	n/a	1.0	1.338	Sem/Sem_run-02/stereo_2SH50A0.wav	1.0	1	1.088
12.643	3.454	S_C	1.0	n/a	n/a	1.0	0.295	Sem/Sem_run-02/ContS08.wav	1.0	1	1.045
16.113	4.33	S_H	1.0	n/a	n/a	1.0	0.927	Sem/Sem_run-02/stereo_1SH10A0.wav	1.0	1	0.677
20.449	3.872	S_L	1.0	n/a	n/a	1.0	1.179	Sem/Sem_run-02/stereo_2SL61A0.wav	1.0	1	0.929
24.336	3.885	S_L	1.0	n/a	n/a	1.0	1.234	Sem/Sem_run-02/stereo_1SL23A0.wav	1.0	1	0.984
28.222	4.2	S_U	2.0	n/a	n/a	2.0	1.607	Sem/Sem_run-02/stereo_1SU42A0.wav	2.0	1	1.357
32.425	3.321	S_L	1.0	n/a	n/a	1.0	0.932	Sem/Sem_run-02/stereo_1SL16A0.wav	1.0	1	0.682
35.761	3.59	S_C	1.0	n/a	n/a	1.0	0.415	Sem/Sem_run-02/ContS26.wav	1.0	1	1.165
39.364	4.4	S_H	1.0	n/a	n/a	1.0	1.028	Sem/Sem_run-02/stereo_2SH60A0.wav	1.0	1	0.778
43.767	4.311	S_L	1.0	n/a	n/a	1.0	1.139	Sem/Sem_run-02/stereo_2SL75A0.wav	1.0	1	0.889
48.087	3.912	S_H	1.0	n/a	n/a	1.0	1.3319999999999999	Sem/Sem_run-02/stereo_2SH59A0.wav	1.0	1	1.082
52.007	4.4	S_U	2.0	n/a	n/a	2.0	1.13	Sem/Sem_run-02/stereo_2SU84A0.wav	2.0	1	0.8799999999999999
56.41	3.4210000000000003	S_U	2.0	n/a	n/a	2.0	1.557	Sem/Sem_run-02/stereo_1SU43A0.wav	2.0	1	1.307
59.846	3.8539999999999996	S_C	1.0	n/a	n/a	1.0	0.006999999999999999	Sem/Sem_run-02/ContS02.wav	1.0	1	0.757
63.716	4.37	S_L	1.0	n/a	n/a	1.0	1.778	Sem/Sem_run-02/stereo_1SL19A0.wav	1.0	1	1.528
68.086	3.862	S_L	1.0	n/a	n/a	1.0	1.581	Sem/Sem_run-02/stereo_1SL18A0.wav	1.0	1	1.331
71.955	4.462	S_C	1.0	1.0	0.7340000000000001	n/a	n/a	Sem/Sem_run-02/ContS22.wav	1.0	1	0.7340000000000001
76.425	3.406	S_L	1.0	n/a	n/a	1.0	1.23	Sem/Sem_run-02/stereo_1SL21A0.wav	1.0	1	0.98
79.845	3.355	S_U	2.0	n/a	n/a	2.0	1.632	Sem/Sem_run-02/stereo_1SU36A0.wav	2.0	1	1.382
83.214	4.324	S_C	1.0	1.0	0.742	n/a	n/a	Sem/Sem_run-02/ContS04.wav	1.0	1	0.742
87.55	4.253	S_L	1.0	n/a	n/a	1.0	1.204	Sem/Sem_run-02/stereo_1SL24A0.wav	1.0	1	0.954
91.804	3.839	S_L	1.0	n/a	n/a	1.0	1.0290000000000001	Sem/Sem_run-02/stereo_2SL70A0.wav	1.0	1	0.7789999999999999
95.657	4.395	S_C	1.0	1.0	0.731	n/a	n/a	Sem/Sem_run-02/ContS14.wav	1.0	1	0.731
100.06	3.8739999999999997	S_H	1.0	n/a	n/a	1.0	0.768	Sem/Sem_run-02/stereo_1SH09A0.wav	1.0	1	0.518
103.946	3.75	S_U	2.0	n/a	n/a	2.0	1.45	Sem/Sem_run-02/stereo_1SU32A0.wav	2.0	1	1.2
107.699	3.641	S_C	1.0	n/a	n/a	1.0	0.019	Sem/Sem_run-02/ContS34.wav	1.0	1	0.769
111.352	3.338	S_U	2.0	n/a	n/a	2.0	1.1540000000000001	Sem/Sem_run-02/stereo_1SU31A0.wav	2.0	1	0.904
114.704	3.45	S_L	1.0	n/a	n/a	1.0	1.214	Sem/Sem_run-02/stereo_2SL68A0.wav	1.0	1	0.964
118.157	3.8510000000000004	S_H	1.0	n/a	n/a	1.0	0.732	Sem/Sem_run-02/stereo_1SH14A0.wav	1.0	1	0.482
122.01	3.459	S_H	1.0	n/a	n/a	1.0	1.401	Sem/Sem_run-02/stereo_1SH01A0.wav	1.0	1	1.151
125.479	3.512	S_C	1.0	1.0	0.745	n/a	n/a	Sem/Sem_run-02/ContS16.wav	1.0	1	0.745
128.999	3.489	S_H	1.0	n/a	n/a	2.0	1.371	Sem/Sem_run-02/stereo_1SH12A0.wav	2.0	0	1.121
132.501	3.8489999999999998	S_U	2.0	n/a	n/a	2.0	1.421	Sem/Sem_run-02/stereo_2SU86A0.wav	2.0	1	1.171
136.35399999999998	3.46	S_L	1.0	n/a	n/a	1.0	1.409	Sem/Sem_run-02/stereo_1SL28A0.wav	1.0	1	1.159
139.82399999999998	4.53	S_C	1.0	n/a	n/a	1.0	0.028999999999999998	Sem/Sem_run-02/ContS32.wav	1.0	1	0.779
144.36	4.351	S_H	1.0	n/a	n/a	1.0	1.093	Sem/Sem_run-02/stereo_2SH52A0.wav	1.0	1	0.843
148.714	3.48	S_H	1.0	n/a	n/a	1.0	1.672	Sem/Sem_run-02/stereo_2SH47A0.wav	1.0	1	1.422
152.2	3.3	S_H	1.0	n/a	n/a	1.0	0.922	Sem/Sem_run-02/stereo_2SH53A0.wav	1.0	1	0.672
155.502	3.847	S_U	2.0	n/a	n/a	2.0	1.405	Sem/Sem_run-02/stereo_1SU39A0.wav	2.0	1	1.155
159.355	3.923	S_C	1.0	1.0	0.731	1.0	0.8909999999999999	Sem/Sem_run-02/ContS10.wav	1.0	1	0.731
163.291	3.7510000000000003	S_U	2.0	n/a	n/a	2.0	1.82	Sem/Sem_run-02/stereo_2SU80A0.wav	2.0	1	1.57
167.044	4.2	S_L	1.0	n/a	n/a	1.0	1.0290000000000001	Sem/Sem_run-02/stereo_2SL66A0.wav	1.0	1	0.7789999999999999
171.247	3.99	S_C	1.0	n/a	n/a	1.0	0.035	Sem/Sem_run-02/ContS20.wav	1.0	1	0.785
175.25	4.041	S_C	1.0	n/a	n/a	1.0	0.163	Sem/Sem_run-02/ContS28.wav	1.0	1	0.913
179.304	4.2	S_U	2.0	n/a	n/a	2.0	1.766	Sem/Sem_run-02/stereo_2SU89A0.wav	2.0	1	1.516
183.507	4.368	S_H	1.0	n/a	n/a	1.0	1.504	Sem/Sem_run-02/stereo_2SH46A0.wav	1.0	1	1.254
