onset	duration	trial_type	correct	window1_response	window1_RT	window2_response	window2_RT	stim_file	calculated_response	calculated_accuracy	calculated_RT
1.084	3.4539999999999997	P_R	1.0	n/a	n/a	1.0	1.63	Phon/Phon_run-01/stereo_PR01.wav	1.0	1	1.38
4.553	3.767	P_O	1.0	n/a	n/a	1.0	1.0590000000000002	Phon/Phon_run-01/PC018.wav	1.0	1	0.8090000000000002
8.323	3.391	P_O	1.0	n/a	n/a	2.0	1.2930000000000001	Phon/Phon_run-01/PC009.wav	2.0	0	1.043
11.725999999999999	4.374	P_C	1.0	n/a	n/a	1.0	0.226	Phon/Phon_run-01/ContS11.wav	1.0	1	0.976
16.112000000000002	3.345	P_U	2.0	n/a	n/a	2.0	1.215	Phon/Phon_run-01/PM002.wav	2.0	1	0.9650000000000001
19.465	4.4510000000000005	P_C	1.0	n/a	n/a	1.0	0.527	Phon/Phon_run-01/ContS21.wav	1.0	1	1.2770000000000001
23.919	4.382	P_O	1.0	n/a	n/a	1.0	1.367	Phon/Phon_run-01/PC005.wav	1.0	1	1.117
28.30599999999999	3.3	P_U	2.0	n/a	n/a	2.0	1.35	Phon/Phon_run-01/stereo_PU26.wav	2.0	1	1.1
31.608	4.324	P_C	1.0	n/a	n/a	1.0	0.16	Phon/Phon_run-01/ContS03.wav	1.0	1	0.91
35.945	4.378	P_R	1.0	n/a	n/a	1.0	1.415	Phon/Phon_run-01/stereo_PR29.wav	1.0	1	1.165
40.332	3.4810000000000003	P_U	2.0	n/a	n/a	2.0	2.265	Phon/Phon_run-01/PM020.wav	2.0	1	2.015
43.81800000000001	4.393	P_O	1.0	n/a	n/a	2.0	1.6440000000000001	Phon/Phon_run-01/PC027.wav	2.0	0	1.394
48.222	4.4	P_R	1.0	n/a	n/a	1.0	1.442	Phon/Phon_run-01/stereo_PR11.wav	1.0	1	1.192
52.625	3.884	P_C	1.0	1.0	0.7	1.0	0.611	Phon/Phon_run-01/ContS05.wav	1.0	1	0.7
56.512	3.891	P_U	2.0	n/a	n/a	2.0	1.493	Phon/Phon_run-01/stereo_PU28.wav	2.0	1	1.243
60.415	4.4	P_O	1.0	n/a	n/a	1.0	1.639	Phon/Phon_run-01/PC013.wav	1.0	1	1.389
64.818	3.513	P_C	1.0	n/a	n/a	1.0	0.16399999999999998	Phon/Phon_run-01/ContS17.wav	1.0	1	0.9139999999999999
68.33800000000001	4.4	P_U	2.0	n/a	n/a	1.0	2.125	Phon/Phon_run-01/PM027.wav	1.0	0	1.875
72.741	4.4	P_O	1.0	n/a	n/a	2.0	1.685	Phon/Phon_run-01/PC021.wav	2.0	0	1.435
77.145	4.496	P_C	1.0	n/a	n/a	1.0	0.12	Phon/Phon_run-01/ContS29.wav	1.0	1	0.87
81.648	3.3680000000000003	P_R	1.0	n/a	n/a	1.0	1.534	Phon/Phon_run-01/stereo_PR25.wav	1.0	1	1.284
85.01799999999999	3.95	P_O	1.0	n/a	n/a	1.0	1.236	Phon/Phon_run-01/PC012.wav	1.0	1	0.986
88.971	3.95	P_U	2.0	n/a	n/a	2.0	1.5519999999999998	Phon/Phon_run-01/PM003.wav	2.0	1	1.3019999999999998
92.92399999999999	3.939	P_O	1.0	n/a	n/a	1.0	1.138	Phon/Phon_run-01/PC004.wav	1.0	1	0.8879999999999999
96.87700000000001	3.59	P_C	1.0	n/a	n/a	1.0	0.059000000000000004	Phon/Phon_run-01/ContS27.wav	1.0	1	0.8089999999999999
100.48	4.296	P_U	2.0	n/a	n/a	2.0	1.7790000000000001	Phon/Phon_run-01/stereo_PU21.wav	2.0	1	1.529
104.78399999999999	3.862	P_R	1.0	n/a	n/a	1.0	2.645	Phon/Phon_run-01/stereo_PR26.wav	1.0	1	2.395
108.654	3.95	P_O	1.0	n/a	n/a	1.0	2.126	Phon/Phon_run-01/PC026.wav	1.0	1	1.876
112.60700000000001	3.5	P_O	1.0	n/a	n/a	1.0	1.4169999999999998	Phon/Phon_run-01/PC025.wav	1.0	1	1.1669999999999998
116.11	4.013	P_C	1.0	n/a	n/a	1.0	0.20199999999999999	Phon/Phon_run-01/ContS23.wav	1.0	1	0.952
120.12899999999999	3.792	P_R	1.0	n/a	n/a	1.0	1.825	Phon/Phon_run-01/stereo_PR18.wav	1.0	1	1.575
123.932	3.346	P_U	2.0	n/a	n/a	n/a	n/a	Phon/Phon_run-01/stereo_PU19.wav	n/a	0	n/a
127.285	3.891	P_R	1.0	n/a	n/a	1.0	2.1830000000000003	Phon/Phon_run-01/stereo_PR03.wav	1.0	1	1.9330000000000003
131.188	3.355	P_O	1.0	n/a	n/a	1.0	2.155	Phon/Phon_run-01/PC003.wav	1.0	1	1.9049999999999998
134.558	3.951	P_C	1.0	n/a	n/a	1.0	0.41100000000000003	Phon/Phon_run-01/ContS15.wav	1.0	1	1.161
138.511	3.74	P_U	2.0	n/a	n/a	2.0	1.9709999999999999	Phon/Phon_run-01/stereo_PU16.wav	2.0	1	1.721
142.264	3.95	P_R	1.0	n/a	n/a	1.0	1.944	Phon/Phon_run-01/stereo_PR10.wav	1.0	1	1.694
146.217	3.464	P_C	1.0	n/a	n/a	1.0	0.474	Phon/Phon_run-01/ContS09.wav	1.0	1	1.224
149.687	4.275	P_R	1.0	n/a	n/a	1.0	1.743	Phon/Phon_run-01/stereo_PR04.wav	1.0	1	1.493
153.97299999999996	3.95	P_U	2.0	n/a	n/a	2.0	1.7269999999999999	Phon/Phon_run-01/PM023.wav	2.0	1	1.477
157.92600000000004	4.4	P_U	2.0	n/a	n/a	2.0	2.329	Phon/Phon_run-01/PM001.wav	2.0	1	2.079
162.33	3.665	P_C	1.0	n/a	n/a	1.0	1.246	Phon/Phon_run-01/ContS35.wav	1.0	1	1.996
166.0	3.463	P_O	1.0	n/a	n/a	n/a	n/a	Phon/Phon_run-01/PC017.wav	1.0	1	2.787
169.46900000000005	4.332	P_R	1.0	1.0	0.324	1.0	0.99	Phon/Phon_run-01/stereo_PR19.wav	1.0	1	0.74
173.80599999999995	4.083	P_C	1.0	n/a	n/a	1.0	0.051	Phon/Phon_run-01/ContS33.wav	1.0	1	0.801
177.892	3.5	P_R	1.0	n/a	n/a	1.0	1.6980000000000002	Phon/Phon_run-01/stereo_PR17.wav	1.0	1	1.4480000000000002
181.395	4.2669999999999995	P_U	2.0	n/a	n/a	2.0	1.665	Phon/Phon_run-01/PM009.wav	2.0	1	1.415
185.665	3.4389999999999996	P_R	1.0	n/a	n/a	1.0	1.9469999999999998	Phon/Phon_run-01/stereo_PR09.wav	1.0	1	1.697
