onset	duration	trial_type	correct	window1_response	window1_RT	window2_response	window2_RT	stim_file	calculated_response	calculated_accuracy	calculated_RT
1.0907	4.2010000000000005	S_U	2.0	n/a	n/a	2.0	1.318	Sem/Sem_run-02/stereo_1SU33A0.wav	2.0	1	1.068
5.2947	3.486	S_U	2.0	n/a	n/a	2.0	1.524	Sem/Sem_run-02/stereo_2SU85A0.wav	2.0	1	1.274
8.7817	3.8539999999999996	S_H	1.0	n/a	n/a	1.0	1.0490000000000002	Sem/Sem_run-02/stereo_2SH50A0.wav	1.0	1	0.7990000000000002
12.6503	3.454	S_C	1.0	n/a	n/a	1.0	0.428	Sem/Sem_run-02/ContS08.wav	1.0	1	1.178
16.1195	4.33	S_H	1.0	n/a	n/a	1.0	1.119	Sem/Sem_run-02/stereo_1SH10A0.wav	1.0	1	0.8690000000000001
20.4559	3.872	S_L	1.0	n/a	n/a	1.0	1.075	Sem/Sem_run-02/stereo_2SL61A0.wav	1.0	1	0.825
24.3421	3.885	S_L	1.0	n/a	n/a	2.0	1.485	Sem/Sem_run-02/stereo_1SL23A0.wav	2.0	0	1.235
28.2293	4.2	S_U	2.0	n/a	n/a	2.0	1.359	Sem/Sem_run-02/stereo_1SU42A0.wav	2.0	1	1.109
32.4326	3.321	S_L	1.0	n/a	n/a	1.0	1.662	Sem/Sem_run-02/stereo_1SL16A0.wav	1.0	1	1.412
35.7684	3.59	S_C	1.0	n/a	n/a	1.0	1.143	Sem/Sem_run-02/ContS26.wav	1.0	1	1.893
39.3711	4.4	S_H	1.0	n/a	n/a	1.0	1.56	Sem/Sem_run-02/stereo_2SH60A0.wav	1.0	1	1.31
43.7745	4.311	S_L	1.0	n/a	n/a	1.0	1.504	Sem/Sem_run-02/stereo_2SL75A0.wav	1.0	1	1.254
48.0943	3.912	S_H	1.0	n/a	n/a	1.0	1.827	Sem/Sem_run-02/stereo_2SH59A0.wav	1.0	1	1.577
52.0138	4.4	S_U	2.0	n/a	n/a	2.0	2.119	Sem/Sem_run-02/stereo_2SU84A0.wav	2.0	1	1.869
56.4171	3.4210000000000003	S_U	2.0	n/a	n/a	2.0	1.53	Sem/Sem_run-02/stereo_1SU43A0.wav	2.0	1	1.28
59.8529	3.8539999999999996	S_C	1.0	n/a	n/a	1.0	1.23	Sem/Sem_run-02/ContS02.wav	1.0	1	1.98
63.7217	4.37	S_L	1.0	n/a	n/a	1.0	2.633	Sem/Sem_run-02/stereo_1SL19A0.wav	1.0	1	2.383
68.0927	3.862	S_L	1.0	n/a	n/a	1.0	1.1909999999999998	Sem/Sem_run-02/stereo_1SL18A0.wav	1.0	1	0.9409999999999998
71.9622	4.462	S_C	1.0	n/a	n/a	1.0	2.782	Sem/Sem_run-02/ContS22.wav	1.0	1	3.532
76.4321	3.406	S_L	1.0	n/a	n/a	1.0	1.035	Sem/Sem_run-02/stereo_1SL21A0.wav	1.0	1	0.7849999999999999
79.8515	3.355	S_U	2.0	n/a	n/a	2.0	1.547	Sem/Sem_run-02/stereo_1SU36A0.wav	2.0	1	1.297
83.2206	4.324	S_C	1.0	n/a	n/a	1.0	1.789	Sem/Sem_run-02/ContS04.wav	1.0	1	2.539
87.5571	4.253	S_L	1.0	n/a	n/a	1.0	1.403	Sem/Sem_run-02/stereo_1SL24A0.wav	1.0	1	1.153
91.8112	3.839	S_L	1.0	n/a	n/a	1.0	1.527	Sem/Sem_run-02/stereo_2SL70A0.wav	1.0	1	1.277
95.664	4.395	S_C	1.0	n/a	n/a	1.0	0.698	Sem/Sem_run-02/ContS14.wav	1.0	1	1.4480000000000002
100.0673	3.8739999999999997	S_H	1.0	n/a	n/a	1.0	1.185	Sem/Sem_run-02/stereo_1SH09A0.wav	1.0	1	0.935
103.9534	3.75	S_U	2.0	n/a	n/a	2.0	1.272	Sem/Sem_run-02/stereo_1SU32A0.wav	2.0	1	1.022
107.7063	3.641	S_C	1.0	n/a	n/a	1.0	0.403	Sem/Sem_run-02/ContS34.wav	1.0	1	1.153
111.359	3.338	S_U	2.0	n/a	n/a	2.0	1.281	Sem/Sem_run-02/stereo_1SU31A0.wav	2.0	1	1.031
114.7114	3.45	S_L	1.0	n/a	n/a	2.0	1.948	Sem/Sem_run-02/stereo_2SL68A0.wav	2.0	0	1.6980000000000002
118.164	3.8510000000000004	S_H	1.0	n/a	n/a	1.0	1.205	Sem/Sem_run-02/stereo_1SH14A0.wav	1.0	1	0.955
122.0178	3.459	S_H	1.0	n/a	n/a	1.0	1.631	Sem/Sem_run-02/stereo_1SH01A0.wav	1.0	1	1.381
125.4869	3.512	S_C	1.0	n/a	n/a	1.0	0.904	Sem/Sem_run-02/ContS16.wav	1.0	1	1.654
129.0062	3.489	S_H	1.0	n/a	n/a	1.0	1.3030000000000002	Sem/Sem_run-02/stereo_1SH12A0.wav	1.0	1	1.0530000000000002
132.5087	3.8489999999999998	S_U	2.0	n/a	n/a	2.0	1.445	Sem/Sem_run-02/stereo_2SU86A0.wav	2.0	1	1.195
136.3616	3.46	S_L	1.0	n/a	n/a	1.0	1.798	Sem/Sem_run-02/stereo_1SL28A0.wav	1.0	1	1.548
139.8308	4.53	S_C	1.0	n/a	n/a	1.0	1.15	Sem/Sem_run-02/ContS32.wav	1.0	1	1.9
144.3674	4.351	S_H	1.0	n/a	n/a	1.0	1.604	Sem/Sem_run-02/stereo_2SH52A0.wav	1.0	1	1.354
148.7216	3.48	S_H	1.0	n/a	n/a	2.0	1.612	Sem/Sem_run-02/stereo_2SH47A0.wav	2.0	0	1.362
152.2075	3.3	S_H	1.0	n/a	n/a	1.0	1.145	Sem/Sem_run-02/stereo_2SH53A0.wav	1.0	1	0.895
155.5099	3.847	S_U	2.0	n/a	n/a	2.0	1.717	Sem/Sem_run-02/stereo_1SU39A0.wav	2.0	1	1.467
159.3627	3.923	S_C	1.0	n/a	n/a	1.0	0.16699999999999998	Sem/Sem_run-02/ContS10.wav	1.0	1	0.917
163.2989	3.7510000000000003	S_U	2.0	n/a	n/a	2.0	1.405	Sem/Sem_run-02/stereo_2SU80A0.wav	2.0	1	1.155
167.0527	4.2	S_L	1.0	n/a	n/a	1.0	1.5219999999999998	Sem/Sem_run-02/stereo_2SL66A0.wav	1.0	1	1.2719999999999998
171.2559	3.99	S_C	1.0	n/a	n/a	1.0	1.486	Sem/Sem_run-02/ContS20.wav	1.0	1	2.2359999999999998
175.2588	4.041	S_C	1.0	n/a	n/a	1.0	0.209	Sem/Sem_run-02/ContS28.wav	1.0	1	0.959
179.3117	4.2	S_U	2.0	n/a	n/a	2.0	1.389	Sem/Sem_run-02/stereo_2SU89A0.wav	2.0	1	1.139
183.5149	4.368	S_H	1.0	n/a	n/a	1.0	1.385	Sem/Sem_run-02/stereo_2SH46A0.wav	1.0	1	1.135
