onset	duration	trial_type	correct	window1_response	window1_RT	window2_response	window2_RT	stim_file	calculated_response	calculated_accuracy	calculated_RT
1.085	4.2	S_U	2.0	n/a	n/a	2.0	1.432	Sem/Sem_run-01/stereo_1SU41A0.wav	2.0	1	1.182
5.2879999999999985	3.596	S_C	1.0	n/a	n/a	1.0	0.354	Sem/Sem_run-01/ContS29.wav	1.0	1	1.104
8.891	3.425	S_U	2.0	n/a	n/a	2.0	1.665	Sem/Sem_run-01/stereo_2SU87A0.wav	2.0	1	1.415
12.327	3.933	S_H	1.0	n/a	n/a	1.0	1.315	Sem/Sem_run-01/stereo_1SH13A0.wav	1.0	1	1.065
16.262999999999998	4.323	S_H	1.0	n/a	n/a	1.0	1.334	Sem/Sem_run-01/stereo_1SH05A0.wav	1.0	1	1.084
20.6	4.073	S_C	1.0	n/a	n/a	1.0	0.102	Sem/Sem_run-01/ContS31.wav	1.0	1	0.852
24.686	3.869	S_L	1.0	n/a	n/a	1.0	1.5759999999999998	Sem/Sem_run-01/stereo_2SL63A0.wav	1.0	1	1.3259999999999998
28.555999999999997	3.75	S_L	1.0	n/a	n/a	1.0	1.2309999999999999	Sem/Sem_run-01/stereo_1SL29A0.wav	1.0	1	0.9810000000000001
32.308	4.3660000000000005	S_U	2.0	n/a	n/a	2.0	1.642	Sem/Sem_run-01/stereo_2SU78A0.wav	2.0	1	1.392
36.678000000000004	3.3	S_L	1.0	n/a	n/a	1.0	1.6059999999999999	Sem/Sem_run-01/stereo_1SL17A0.wav	1.0	1	1.356
39.981	3.884	S_C	1.0	n/a	n/a	1.0	0.284	Sem/Sem_run-01/ContS05.wav	1.0	1	1.034
43.867	4.371	S_H	1.0	n/a	n/a	1.0	1.328	Sem/Sem_run-01/stereo_2SH58A0.wav	1.0	1	1.078
48.254	4.329	S_L	1.0	n/a	n/a	1.0	1.264	Sem/Sem_run-01/stereo_2SL72A0.wav	1.0	1	1.014
52.591	3.94	S_H	1.0	n/a	n/a	2.0	1.321	Sem/Sem_run-01/stereo_2SH57A0.wav	2.0	0	1.071
56.544	4.2	S_U	2.0	n/a	n/a	1.0	1.314	Sem/Sem_run-01/stereo_2SU83A0.wav	1.0	0	1.064
60.747	3.474	S_C	1.0	1.0	0.613	n/a	n/a	Sem/Sem_run-01/ContS11.wav	1.0	1	0.613
64.233	4.271	S_L	1.0	n/a	n/a	1.0	2.3040000000000003	Sem/Sem_run-01/stereo_1SL26A0.wav	1.0	1	2.0540000000000003
68.51899999999999	3.91	S_L	1.0	n/a	n/a	n/a	n/a	Sem/Sem_run-01/stereo_1SL25A0.wav	n/a	0	n/a
72.439	4.479	S_C	1.0	1.0	0.083	n/a	n/a	Sem/Sem_run-01/ContS25.wav	1.0	1	0.083
76.926	3.378	S_U	2.0	n/a	n/a	2.0	1.7830000000000001	Sem/Sem_run-01/stereo_2SU81A0.wav	2.0	1	1.533
80.312	3.42	S_L	1.0	n/a	n/a	n/a	n/a	Sem/Sem_run-01/stereo_1SL27A0.wav	n/a	0	n/a
83.74799999999998	4.3439999999999985	S_L	1.0	n/a	n/a	1.0	1.71	Sem/Sem_run-01/stereo_1SL30A0.wav	1.0	1	1.46
88.101	3.909	S_L	1.0	n/a	n/a	1.0	2.193	Sem/Sem_run-01/stereo_2SL71A0.wav	1.0	1	1.943
92.021	3.867	S_H	1.0	n/a	n/a	1.0	1.307	Sem/Sem_run-01/stereo_1SH04A0.wav	1.0	1	1.057
95.89	3.828	S_U	2.0	n/a	n/a	2.0	1.139	Sem/Sem_run-01/stereo_1SU37A0.wav	2.0	1	0.889
99.727	4.565	S_C	1.0	n/a	n/a	1.0	0.32299999999999995	Sem/Sem_run-01/ContS35.wav	1.0	1	1.073
104.29700000000001	3.3	S_U	2.0	n/a	n/a	n/a	n/a	Sem/Sem_run-01/stereo_1SU35A0.wav	n/a	0	n/a
107.59899999999999	3.477	S_L	1.0	n/a	n/a	1.0	1.979	Sem/Sem_run-01/stereo_2SL65A0.wav	1.0	1	1.729
111.085	3.83	S_H	1.0	n/a	n/a	1.0	1.219	Sem/Sem_run-01/stereo_1SH07A0.wav	1.0	1	0.9690000000000001
114.92200000000001	4.3439999999999985	S_C	1.0	n/a	n/a	1.0	0.141	Sem/Sem_run-01/ContS07.wav	1.0	1	0.891
119.275	3.5	S_H	1.0	n/a	n/a	1.0	1.374	Sem/Sem_run-01/stereo_1SH03A0.wav	1.0	1	1.124
122.77799999999999	3.919	S_U	2.0	n/a	n/a	2.0	1.5530000000000002	Sem/Sem_run-01/stereo_1SU45A0.wav	2.0	1	1.3030000000000002
126.697	3.5	S_H	1.0	n/a	n/a	1.0	1.5659999999999998	Sem/Sem_run-01/stereo_1SH06A0.wav	1.0	1	1.3159999999999998
130.2	3.392	S_L	1.0	n/a	n/a	1.0	1.8119999999999998	Sem/Sem_run-01/stereo_2SL62A0.wav	1.0	1	1.562
133.60299999999998	3.54	S_C	1.0	n/a	n/a	1.0	0.29	Sem/Sem_run-01/ContS19.wav	1.0	1	1.04
137.155	4.4	S_H	1.0	n/a	n/a	1.0	1.463	Sem/Sem_run-01/stereo_1SH15A0.wav	1.0	1	1.213
141.559	3.342	S_H	1.0	n/a	n/a	2.0	1.7590000000000001	Sem/Sem_run-01/stereo_1SH11A0.wav	2.0	0	1.509
144.911	3.385	S_U	2.0	n/a	n/a	n/a	n/a	Sem/Sem_run-01/stereo_1SU44A0.wav	n/a	0	n/a
148.297	3.4160000000000004	S_H	1.0	n/a	n/a	1.0	1.6219999999999999	Sem/Sem_run-01/stereo_2SH56A0.wav	1.0	1	1.372
151.716	3.849	S_U	2.0	n/a	n/a	2.0	1.7730000000000001	Sem/Sem_run-01/stereo_2SU82A0.wav	2.0	1	1.523
155.569	3.934	S_C	1.0	n/a	n/a	1.0	0.326	Sem/Sem_run-01/ContS13.wav	1.0	1	1.076
159.506	4.309	S_L	1.0	n/a	n/a	1.0	2.483	Sem/Sem_run-01/stereo_2SL64A0.wav	1.0	1	2.233
163.826	4.413	S_C	1.0	n/a	n/a	1.0	0.6940000000000001	Sem/Sem_run-01/ContS17.wav	1.0	1	1.444
168.24599999999995	4.2	S_U	2.0	n/a	n/a	2.0	1.8780000000000001	Sem/Sem_run-01/stereo_2SU90A0.wav	2.0	1	1.628
172.449	3.846	S_U	2.0	n/a	n/a	2.0	1.439	Sem/Sem_run-01/stereo_2SU88A0.wav	2.0	1	1.189
176.30200000000005	3.3939999999999997	S_C	1.0	n/a	n/a	1.0	0.7809999999999999	Sem/Sem_run-01/ContS01.wav	1.0	1	1.531
179.704	4.013	S_C	1.0	n/a	n/a	1.0	1.359	Sem/Sem_run-01/ContS23.wav	1.0	1	2.109
183.72400000000002	4.227	S_H	1.0	n/a	n/a	1.0	1.885	Sem/Sem_run-01/stereo_1SH08A0.wav	1.0	1	1.635
