onset	duration	trial_type	correct	window1_response	window1_RT	window2_response	window2_RT	stim_file	calculated_response	calculated_accuracy	calculated_RT
1.0924	3.5	P_R	1.0	n/a	n/a	1.0	1.3430000000000002	Phon/Phon_run-02/stereo_PR20.wav	1.0	1	1.0930000000000002
4.595	4.235	P_O	1.0	n/a	n/a	1.0	1.148	Phon/Phon_run-02/PC034.wav	1.0	1	0.8979999999999999
8.8325	3.375	P_R	1.0	n/a	n/a	1.0	1.556	Phon/Phon_run-02/stereo_PR13.wav	1.0	1	1.306
12.2183	3.474	P_C	1.0	n/a	n/a	1.0	0.688	Phon/Phon_run-02/ContS12.wav	1.0	1	1.438
15.7041	3.875	P_U	2.0	n/a	n/a	2.0	1.393	Phon/Phon_run-02/PM025.wav	2.0	1	1.143
19.5903	3.726	P_R	1.0	n/a	n/a	1.0	1.177	Phon/Phon_run-02/stereo_PR22.wav	1.0	1	0.927
23.3263	3.451	P_O	1.0	n/a	n/a	1.0	1.754	Phon/Phon_run-02/PC014.wav	1.0	1	1.504
26.7799	3.779	P_C	1.0	n/a	n/a	1.0	0.6509999999999999	Phon/Phon_run-02/ContS02.wav	1.0	1	1.4009999999999998
30.566	3.821	P_U	2.0	n/a	n/a	n/a	n/a	Phon/Phon_run-02/stereo_PU18.wav	n/a	0	n/a
34.402	3.49	P_U	2.0	n/a	n/a	n/a	n/a	Phon/Phon_run-02/stereo_PU12.wav	n/a	0	n/a
37.9046	4.38	P_C	1.0	n/a	n/a	1.0	0.784	Phon/Phon_run-02/ContS32.wav	1.0	1	1.534
42.291000000000004	4.0969999999999995	P_R	1.0	n/a	n/a	1.0	1.4	Phon/Phon_run-02/stereo_PR16.wav	1.0	1	1.15
46.394	3.5	P_O	1.0	n/a	n/a	1.0	1.567	Phon/Phon_run-02/PC022.wav	1.0	1	1.317
49.8966	4.0760000000000005	P_R	1.0	n/a	n/a	1.0	1.653	Phon/Phon_run-02/stereo_PR08.wav	1.0	1	1.403
53.983000000000004	3.5	P_O	1.0	n/a	n/a	1.0	1.923	Phon/Phon_run-02/PC028.wav	1.0	1	1.673
57.4856	3.5	P_U	2.0	n/a	n/a	2.0	1.59	Phon/Phon_run-02/stereo_PU27.wav	2.0	1	1.34
60.9881	3.819	P_C	1.0	n/a	n/a	1.0	0.551	Phon/Phon_run-02/ContS06.wav	1.0	1	1.3010000000000002
64.8086	4.25	P_O	1.0	n/a	n/a	1.0	1.8730000000000002	Phon/Phon_run-02/PC031.wav	1.0	1	1.623
69.062	3.662	P_C	1.0	n/a	n/a	1.0	0.314	Phon/Phon_run-02/ContS36.wav	1.0	1	1.064
72.7312	3.823	P_O	1.0	n/a	n/a	1.0	1.365	Phon/Phon_run-02/PC023.wav	1.0	1	1.115
76.5674	4.323	P_C	1.0	n/a	n/a	1.0	0.562	Phon/Phon_run-02/ContS24.wav	1.0	1	1.312
80.9038	3.865	P_U	2.0	n/a	n/a	2.0	1.188	Phon/Phon_run-02/PM004.wav	2.0	1	0.938
84.7733	3.875	P_O	1.0	n/a	n/a	1.0	1.24	Phon/Phon_run-02/PC007.wav	1.0	1	0.99
88.6594	4.25	P_U	2.0	n/a	n/a	n/a	n/a	Phon/Phon_run-02/PM011.wav	n/a	0	n/a
92.9126	4.362	P_C	1.0	n/a	n/a	1.0	0.792	Phon/Phon_run-02/ContS30.wav	1.0	1	1.542
97.2825	3.875	P_O	1.0	n/a	n/a	1.0	1.6780000000000002	Phon/Phon_run-02/PC030.wav	1.0	1	1.4280000000000002
101.1687	3.3360000000000003	P_R	1.0	n/a	n/a	1.0	1.4609999999999999	Phon/Phon_run-02/stereo_PR05.wav	1.0	1	1.211
104.5077	4.113	P_U	2.0	n/a	n/a	2.0	1.246	Phon/Phon_run-02/stereo_PU01.wav	2.0	1	0.996
108.6273	4.1739999999999995	P_U	2.0	n/a	n/a	2.0	1.256	Phon/Phon_run-02/PM029.wav	2.0	1	1.006
112.8137	3.4539999999999997	P_C	1.0	n/a	n/a	1.0	0.556	Phon/Phon_run-02/ContS08.wav	1.0	1	1.306
116.2828	3.446	P_R	1.0	n/a	n/a	1.0	1.463	Phon/Phon_run-02/stereo_PR30.wav	1.0	1	1.213
119.7352	3.85	P_R	1.0	n/a	n/a	1.0	1.402	Phon/Phon_run-02/stereo_PR07.wav	1.0	1	1.152
123.588	3.438	P_U	2.0	n/a	n/a	2.0	1.182	Phon/Phon_run-02/stereo_PU02.wav	2.0	1	0.9319999999999999
127.0406	3.915	P_C	1.0	n/a	n/a	1.0	0.49	Phon/Phon_run-02/ContS20.wav	1.0	1	1.24
130.9601	3.487	P_U	2.0	n/a	n/a	2.0	1.506	Phon/Phon_run-02/PM021.wav	2.0	1	1.256
134.46200000000002	3.965	P_C	1.0	n/a	n/a	1.0	0.314	Phon/Phon_run-02/ContS26.wav	1.0	1	1.064
138.4315	3.792	P_R	1.0	n/a	n/a	1.0	1.217	Phon/Phon_run-02/stereo_PR31.wav	1.0	1	0.9670000000000001
142.2343	4.135	P_O	1.0	n/a	n/a	1.0	1.357	Phon/Phon_run-02/PC024.wav	1.0	1	1.107
146.3717	3.875	P_U	2.0	n/a	n/a	2.0	1.245	Phon/Phon_run-02/PM010.wav	2.0	1	0.9950000000000001
150.2579	3.875	P_O	1.0	n/a	n/a	1.0	1.901	Phon/Phon_run-02/PC015.wav	1.0	1	1.651
154.144	4.245	P_C	1.0	n/a	n/a	1.0	0.693	Phon/Phon_run-02/ContS14.wav	1.0	1	1.443
158.3971	3.854	P_R	1.0	n/a	n/a	1.0	1.2590000000000001	Phon/Phon_run-02/stereo_PR14.wav	1.0	1	1.009
162.2662	4.239	P_O	1.0	n/a	n/a	1.0	2.056	Phon/Phon_run-02/PC008.wav	1.0	1	1.806
166.5192	4.25	P_U	2.0	n/a	n/a	2.0	1.16	Phon/Phon_run-02/stereo_PU11.wav	2.0	1	0.9099999999999999
170.7726	3.523	P_C	1.0	n/a	n/a	1.0	0.285	Phon/Phon_run-02/ContS18.wav	1.0	1	1.035
174.3085	3.429	P_O	1.0	n/a	n/a	1.0	1.3780000000000001	Phon/Phon_run-02/PC006.wav	1.0	1	1.128
177.7443	4.18	P_R	1.0	n/a	n/a	2.0	1.682	Phon/Phon_run-02/stereo_PR32.wav	2.0	0	1.432
181.9307	4.104	P_R	1.0	n/a	n/a	1.0	1.733	Phon/Phon_run-02/stereo_PR24.wav	1.0	1	1.483
