onset	duration	trial_type	correct	window1_response	window1_RT	window2_response	window2_RT	stim_file	calculated_response	calculated_accuracy	calculated_RT
1.0918	4.2	S_U	2.0	n/a	n/a	2.0	1.42	Sem/Sem_run-01/stereo_1SU41A0.wav	2.0	1	1.17
5.2953	3.596	S_C	1.0	n/a	n/a	1.0	0.353	Sem/Sem_run-01/ContS29.wav	1.0	1	1.103
8.898	3.425	S_U	2.0	n/a	n/a	2.0	1.641	Sem/Sem_run-01/stereo_2SU87A0.wav	2.0	1	1.391
12.3338	3.933	S_H	1.0	n/a	n/a	1.0	1.645	Sem/Sem_run-01/stereo_1SH13A0.wav	1.0	1	1.395
16.2699	4.323	S_H	1.0	n/a	n/a	1.0	1.76	Sem/Sem_run-01/stereo_1SH05A0.wav	1.0	1	1.51
20.6064	4.073	S_C	1.0	n/a	n/a	1.0	0.268	Sem/Sem_run-01/ContS31.wav	1.0	1	1.018
24.6927	3.869	S_L	1.0	n/a	n/a	1.0	1.4480000000000002	Sem/Sem_run-01/stereo_2SL63A0.wav	1.0	1	1.1980000000000002
28.5634	3.75	S_L	1.0	n/a	n/a	n/a	n/a	Sem/Sem_run-01/stereo_1SL29A0.wav	n/a	0	n/a
32.3161	4.3660000000000005	S_U	2.0	n/a	n/a	2.0	2.367	Sem/Sem_run-01/stereo_2SU78A0.wav	2.0	1	2.117
36.6859	3.3	S_L	1.0	n/a	n/a	1.0	1.159	Sem/Sem_run-01/stereo_1SL17A0.wav	1.0	1	0.909
39.9885	3.884	S_C	1.0	n/a	n/a	1.0	0.428	Sem/Sem_run-01/ContS05.wav	1.0	1	1.178
43.8755	4.371	S_H	1.0	n/a	n/a	1.0	1.6280000000000001	Sem/Sem_run-01/stereo_2SH58A0.wav	1.0	1	1.378
48.2606	4.329	S_L	1.0	n/a	n/a	1.0	1.7890000000000001	Sem/Sem_run-01/stereo_2SL72A0.wav	1.0	1	1.539
52.5971	3.94	S_H	1.0	n/a	n/a	1.0	2.274	Sem/Sem_run-01/stereo_2SH57A0.wav	1.0	1	2.024
56.55	4.2	S_U	2.0	n/a	n/a	2.0	1.462	Sem/Sem_run-01/stereo_2SU83A0.wav	2.0	1	1.212
60.753	3.474	S_C	1.0	n/a	n/a	1.0	0.467	Sem/Sem_run-01/ContS11.wav	1.0	1	1.217
64.2389	4.271	S_L	1.0	n/a	n/a	1.0	1.3969999999999998	Sem/Sem_run-01/stereo_1SL26A0.wav	1.0	1	1.1469999999999998
68.5248	3.91	S_L	1.0	n/a	n/a	1.0	1.443	Sem/Sem_run-01/stereo_1SL25A0.wav	1.0	1	1.193
72.4443	4.479	S_C	1.0	n/a	n/a	1.0	0.396	Sem/Sem_run-01/ContS25.wav	1.0	1	1.146
76.9309	3.378	S_U	2.0	n/a	n/a	2.0	1.806	Sem/Sem_run-01/stereo_2SU81A0.wav	2.0	1	1.556
80.3167	3.42	S_L	1.0	n/a	n/a	1.0	1.659	Sem/Sem_run-01/stereo_1SL27A0.wav	1.0	1	1.409
83.7479	4.3439999999999985	S_L	1.0	n/a	n/a	1.0	1.339	Sem/Sem_run-01/stereo_1SL30A0.wav	1.0	1	1.089
88.1008	3.909	S_L	1.0	n/a	n/a	1.0	1.3559999999999999	Sem/Sem_run-01/stereo_2SL71A0.wav	1.0	1	1.106
92.0205	3.867	S_H	1.0	n/a	n/a	1.0	1.764	Sem/Sem_run-01/stereo_1SH04A0.wav	1.0	1	1.514
95.8902	3.828	S_U	2.0	n/a	n/a	2.0	1.64	Sem/Sem_run-01/stereo_1SU37A0.wav	2.0	1	1.39
99.7264	4.565	S_C	1.0	n/a	n/a	1.0	0.435	Sem/Sem_run-01/ContS35.wav	1.0	1	1.185
104.2964	3.3	S_U	2.0	n/a	n/a	2.0	1.3459999999999999	Sem/Sem_run-01/stereo_1SU35A0.wav	2.0	1	1.096
107.5986	3.477	S_L	1.0	n/a	n/a	1.0	1.535	Sem/Sem_run-01/stereo_2SL65A0.wav	1.0	1	1.285
111.0845	3.83	S_H	1.0	n/a	n/a	1.0	1.692	Sem/Sem_run-01/stereo_1SH07A0.wav	1.0	1	1.442
114.9207	4.3439999999999985	S_C	1.0	n/a	n/a	1.0	0.885	Sem/Sem_run-01/ContS07.wav	1.0	1	1.635
119.2738	3.5	S_H	1.0	n/a	n/a	1.0	1.432	Sem/Sem_run-01/stereo_1SH03A0.wav	1.0	1	1.182
122.7765	3.919	S_U	2.0	n/a	n/a	1.0	1.5530000000000002	Sem/Sem_run-01/stereo_1SU45A0.wav	1.0	0	1.3030000000000002
126.697	3.5	S_H	1.0	n/a	n/a	1.0	1.409	Sem/Sem_run-01/stereo_1SH06A0.wav	1.0	1	1.159
130.1996	3.392	S_L	1.0	n/a	n/a	2.0	1.371	Sem/Sem_run-01/stereo_2SL62A0.wav	2.0	0	1.121
133.6021	3.54	S_C	1.0	n/a	n/a	1.0	0.613	Sem/Sem_run-01/ContS19.wav	1.0	1	1.363
137.1547	4.4	S_H	1.0	n/a	n/a	2.0	2.21	Sem/Sem_run-01/stereo_1SH15A0.wav	2.0	0	1.96
141.5578	3.342	S_H	1.0	n/a	n/a	1.0	1.4040000000000001	Sem/Sem_run-01/stereo_1SH11A0.wav	1.0	1	1.154
144.9103	3.385	S_U	2.0	n/a	n/a	2.0	1.217	Sem/Sem_run-01/stereo_1SU44A0.wav	2.0	1	0.9670000000000001
148.2972	3.4160000000000004	S_H	1.0	n/a	n/a	1.0	1.239	Sem/Sem_run-01/stereo_2SH56A0.wav	1.0	1	0.9890000000000001
151.7164	3.849	S_U	2.0	n/a	n/a	2.0	1.564	Sem/Sem_run-01/stereo_2SU82A0.wav	2.0	1	1.314
155.5691	3.934	S_C	1.0	n/a	n/a	1.0	0.42100000000000004	Sem/Sem_run-01/ContS13.wav	1.0	1	1.171
159.506	4.309	S_L	1.0	n/a	n/a	1.0	1.636	Sem/Sem_run-01/stereo_2SL64A0.wav	1.0	1	1.386
163.8257	4.413	S_C	1.0	n/a	n/a	1.0	0.446	Sem/Sem_run-01/ContS17.wav	1.0	1	1.196
168.2456	4.2	S_U	2.0	n/a	n/a	2.0	1.3730000000000002	Sem/Sem_run-01/stereo_2SU90A0.wav	2.0	1	1.1230000000000002
172.4489	3.846	S_U	2.0	n/a	n/a	2.0	1.3780000000000001	Sem/Sem_run-01/stereo_2SU88A0.wav	2.0	1	1.128
176.3017	3.3939999999999997	S_C	1.0	n/a	n/a	1.0	0.29	Sem/Sem_run-01/ContS01.wav	1.0	1	1.04
179.7041	4.013	S_C	1.0	n/a	n/a	1.0	0.732	Sem/Sem_run-01/ContS23.wav	1.0	1	1.482
183.7237	4.227	S_H	1.0	n/a	n/a	1.0	1.368	Sem/Sem_run-01/stereo_1SH08A0.wav	1.0	1	1.118
