onset	duration	trial_type	correct	window1_response	window1_RT	window2_response	window2_RT	stim_file	calculated_response	calculated_accuracy	calculated_RT
1.0924	3.5	P_R	1.0	n/a	n/a	2.0	1.9569999999999999	Phon/Phon_run-02/stereo_PR20.wav	2.0	0	1.707
4.595	4.235	P_O	1.0	n/a	n/a	1.0	1.329	Phon/Phon_run-02/PC034.wav	1.0	1	1.079
8.8325	3.375	P_R	1.0	n/a	n/a	1.0	1.3459999999999999	Phon/Phon_run-02/stereo_PR13.wav	1.0	1	1.096
12.2183	3.474	P_C	1.0	n/a	n/a	1.0	1.2309999999999999	Phon/Phon_run-02/ContS12.wav	1.0	1	1.981
15.7041	3.875	P_U	2.0	n/a	n/a	2.0	1.482	Phon/Phon_run-02/PM025.wav	2.0	1	1.232
19.5903	3.726	P_R	1.0	n/a	n/a	1.0	1.476	Phon/Phon_run-02/stereo_PR22.wav	1.0	1	1.226
23.3263	3.451	P_O	1.0	n/a	n/a	1.0	1.235	Phon/Phon_run-02/PC014.wav	1.0	1	0.9850000000000001
26.7799	3.779	P_C	1.0	n/a	n/a	1.0	0.745	Phon/Phon_run-02/ContS02.wav	1.0	1	1.495
30.566	3.821	P_U	2.0	n/a	n/a	2.0	1.746	Phon/Phon_run-02/stereo_PU18.wav	2.0	1	1.496
34.402	3.49	P_U	2.0	n/a	n/a	n/a	n/a	Phon/Phon_run-02/stereo_PU12.wav	n/a	0	n/a
37.9046	4.38	P_C	1.0	n/a	n/a	1.0	0.669	Phon/Phon_run-02/ContS32.wav	1.0	1	1.419
42.291000000000004	4.0969999999999995	P_R	1.0	n/a	n/a	1.0	1.776	Phon/Phon_run-02/stereo_PR16.wav	1.0	1	1.526
46.394	3.5	P_O	1.0	n/a	n/a	n/a	n/a	Phon/Phon_run-02/PC022.wav	1.0	1	2.556
49.8966	4.0760000000000005	P_R	1.0	1.0	0.055999999999999994	1.0	1.818	Phon/Phon_run-02/stereo_PR08.wav	1.0	1	1.568
53.983000000000004	3.5	P_O	1.0	n/a	n/a	1.0	2.003	Phon/Phon_run-02/PC028.wav	1.0	1	1.7530000000000001
57.4856	3.5	P_U	2.0	n/a	n/a	1.0	1.735	Phon/Phon_run-02/stereo_PU27.wav	1.0	0	1.485
60.9881	3.819	P_C	1.0	n/a	n/a	1.0	0.777	Phon/Phon_run-02/ContS06.wav	1.0	1	1.5270000000000001
64.8086	4.25	P_O	1.0	n/a	n/a	1.0	2.38	Phon/Phon_run-02/PC031.wav	1.0	1	2.13
69.062	3.662	P_C	1.0	n/a	n/a	1.0	0.747	Phon/Phon_run-02/ContS36.wav	1.0	1	1.4969999999999999
72.7312	3.823	P_O	1.0	n/a	n/a	n/a	n/a	Phon/Phon_run-02/PC023.wav	n/a	0	n/a
76.5674	4.323	P_C	1.0	n/a	n/a	1.0	0.99	Phon/Phon_run-02/ContS24.wav	1.0	1	1.74
80.9038	3.865	P_U	2.0	n/a	n/a	2.0	1.871	Phon/Phon_run-02/PM004.wav	2.0	1	1.621
84.7733	3.875	P_O	1.0	n/a	n/a	1.0	1.8	Phon/Phon_run-02/PC007.wav	1.0	1	1.55
88.6594	4.25	P_U	2.0	n/a	n/a	2.0	2.331	Phon/Phon_run-02/PM011.wav	2.0	1	2.081
92.9126	4.362	P_C	1.0	n/a	n/a	1.0	0.6	Phon/Phon_run-02/ContS30.wav	1.0	1	1.35
97.2825	3.875	P_O	1.0	n/a	n/a	1.0	2.149	Phon/Phon_run-02/PC030.wav	1.0	1	1.899
101.1687	3.3360000000000003	P_R	1.0	n/a	n/a	2.0	1.996	Phon/Phon_run-02/stereo_PR05.wav	2.0	0	1.746
104.5077	4.113	P_U	2.0	n/a	n/a	2.0	2.585	Phon/Phon_run-02/stereo_PU01.wav	2.0	1	2.335
108.6273	4.1739999999999995	P_U	2.0	n/a	n/a	2.0	1.426	Phon/Phon_run-02/PM029.wav	2.0	1	1.176
112.8137	3.4539999999999997	P_C	1.0	n/a	n/a	1.0	1.195	Phon/Phon_run-02/ContS08.wav	1.0	1	1.945
116.2828	3.446	P_R	1.0	n/a	n/a	1.0	1.795	Phon/Phon_run-02/stereo_PR30.wav	1.0	1	1.545
119.7352	3.85	P_R	1.0	n/a	n/a	1.0	1.839	Phon/Phon_run-02/stereo_PR07.wav	1.0	1	1.589
123.588	3.438	P_U	2.0	n/a	n/a	2.0	1.516	Phon/Phon_run-02/stereo_PU02.wav	2.0	1	1.266
127.0406	3.915	P_C	1.0	n/a	n/a	n/a	n/a	Phon/Phon_run-02/ContS20.wav	n/a	0	n/a
130.9601	3.487	P_U	2.0	n/a	n/a	2.0	2.207	Phon/Phon_run-02/PM021.wav	2.0	1	1.9569999999999999
134.46200000000002	3.965	P_C	1.0	n/a	n/a	1.0	0.907	Phon/Phon_run-02/ContS26.wav	1.0	1	1.657
138.4315	3.792	P_R	1.0	n/a	n/a	2.0	2.173	Phon/Phon_run-02/stereo_PR31.wav	2.0	0	1.923
142.2343	4.135	P_O	1.0	n/a	n/a	n/a	n/a	Phon/Phon_run-02/PC024.wav	n/a	0	n/a
146.3717	3.875	P_U	2.0	n/a	n/a	1.0	1.656	Phon/Phon_run-02/PM010.wav	1.0	0	1.406
150.2579	3.875	P_O	1.0	n/a	n/a	1.0	1.979	Phon/Phon_run-02/PC015.wav	1.0	1	1.729
154.144	4.245	P_C	1.0	n/a	n/a	n/a	n/a	Phon/Phon_run-02/ContS14.wav	n/a	0	n/a
158.3971	3.854	P_R	1.0	n/a	n/a	2.0	1.84	Phon/Phon_run-02/stereo_PR14.wav	2.0	0	1.59
162.2662	4.239	P_O	1.0	n/a	n/a	1.0	1.778	Phon/Phon_run-02/PC008.wav	1.0	1	1.528
166.5192	4.25	P_U	2.0	n/a	n/a	2.0	2.182	Phon/Phon_run-02/stereo_PU11.wav	2.0	1	1.932
170.7726	3.523	P_C	1.0	n/a	n/a	n/a	n/a	Phon/Phon_run-02/ContS18.wav	n/a	0	n/a
174.3085	3.429	P_O	1.0	n/a	n/a	n/a	n/a	Phon/Phon_run-02/PC006.wav	n/a	0	n/a
177.7443	4.18	P_R	1.0	n/a	n/a	n/a	n/a	Phon/Phon_run-02/stereo_PR32.wav	n/a	0	n/a
181.9307	4.104	P_R	1.0	n/a	n/a	n/a	n/a	Phon/Phon_run-02/stereo_PR24.wav	n/a	0	n/a
