onset	duration	trial_type	correct	window1_response	window1_RT	window2_response	window2_RT	stim_file	calculated_response	calculated_accuracy	calculated_RT
1.084	4.2	S_U	2.0	n/a	n/a	1.0	2.024	Sem/Sem_run-01/stereo_1SU41A0.wav	1.0	0	1.774
5.287000000000001	3.596	S_C	1.0	n/a	n/a	1.0	1.456	Sem/Sem_run-01/ContS29.wav	1.0	1	2.206
8.89	3.425	S_U	2.0	n/a	n/a	1.0	2.167	Sem/Sem_run-01/stereo_2SU87A0.wav	1.0	0	1.9169999999999998
12.325999999999999	3.933	S_H	1.0	n/a	n/a	1.0	1.321	Sem/Sem_run-01/stereo_1SH13A0.wav	1.0	1	1.071
16.262	4.323	S_H	1.0	n/a	n/a	1.0	1.645	Sem/Sem_run-01/stereo_1SH05A0.wav	1.0	1	1.395
20.598000000000006	4.073	S_C	1.0	n/a	n/a	1.0	1.577	Sem/Sem_run-01/ContS31.wav	1.0	1	2.327
24.685	3.869	S_L	1.0	n/a	n/a	1.0	1.351	Sem/Sem_run-01/stereo_2SL63A0.wav	1.0	1	1.101
28.554000000000002	3.75	S_L	1.0	n/a	n/a	2.0	1.3769999999999998	Sem/Sem_run-01/stereo_1SL29A0.wav	2.0	0	1.1269999999999998
32.306999999999995	4.3660000000000005	S_U	2.0	n/a	n/a	1.0	2.2230000000000003	Sem/Sem_run-01/stereo_2SU78A0.wav	1.0	0	1.9730000000000003
36.677	3.3	S_L	1.0	n/a	n/a	1.0	1.9140000000000001	Sem/Sem_run-01/stereo_1SL17A0.wav	1.0	1	1.664
39.98	3.884	S_C	1.0	n/a	n/a	1.0	1.3659999999999999	Sem/Sem_run-01/ContS05.wav	1.0	1	2.116
43.86600000000001	4.371	S_H	1.0	n/a	n/a	1.0	2.044	Sem/Sem_run-01/stereo_2SH58A0.wav	1.0	1	1.794
48.253	4.329	S_L	1.0	n/a	n/a	1.0	1.5	Sem/Sem_run-01/stereo_2SL72A0.wav	1.0	1	1.25
52.589	3.94	S_H	1.0	n/a	n/a	1.0	1.8969999999999998	Sem/Sem_run-01/stereo_2SH57A0.wav	1.0	1	1.647
56.542	4.2	S_U	2.0	n/a	n/a	2.0	2.188	Sem/Sem_run-01/stereo_2SU83A0.wav	2.0	1	1.9380000000000002
60.745	3.474	S_C	1.0	n/a	n/a	1.0	1.361	Sem/Sem_run-01/ContS11.wav	1.0	1	2.1109999999999998
64.23100000000001	4.271	S_L	1.0	n/a	n/a	1.0	1.574	Sem/Sem_run-01/stereo_1SL26A0.wav	1.0	1	1.324
68.518	3.91	S_L	1.0	n/a	n/a	1.0	1.505	Sem/Sem_run-01/stereo_1SL25A0.wav	1.0	1	1.255
72.438	4.479	S_C	1.0	n/a	n/a	1.0	1.484	Sem/Sem_run-01/ContS25.wav	1.0	1	2.234
76.92399999999998	3.378	S_U	2.0	n/a	n/a	1.0	1.6540000000000001	Sem/Sem_run-01/stereo_2SU81A0.wav	1.0	0	1.404
80.31	3.42	S_L	1.0	n/a	n/a	2.0	2.147	Sem/Sem_run-01/stereo_1SL27A0.wav	2.0	0	1.8969999999999998
83.74600000000002	4.3439999999999985	S_L	1.0	n/a	n/a	1.0	1.501	Sem/Sem_run-01/stereo_1SL30A0.wav	1.0	1	1.251
88.09899999999998	3.909	S_L	1.0	n/a	n/a	1.0	1.4069999999999998	Sem/Sem_run-01/stereo_2SL71A0.wav	1.0	1	1.1569999999999998
92.01899999999999	3.867	S_H	1.0	n/a	n/a	1.0	2.135	Sem/Sem_run-01/stereo_1SH04A0.wav	1.0	1	1.8849999999999998
95.889	3.828	S_U	2.0	n/a	n/a	2.0	2.381	Sem/Sem_run-01/stereo_1SU37A0.wav	2.0	1	2.131
99.725	4.565	S_C	1.0	n/a	n/a	1.0	1.598	Sem/Sem_run-01/ContS35.wav	1.0	1	2.348
104.295	3.3	S_U	2.0	n/a	n/a	2.0	1.876	Sem/Sem_run-01/stereo_1SU35A0.wav	2.0	1	1.626
107.59700000000001	3.477	S_L	1.0	n/a	n/a	1.0	1.621	Sem/Sem_run-01/stereo_2SL65A0.wav	1.0	1	1.371
111.083	3.83	S_H	1.0	n/a	n/a	1.0	1.6340000000000001	Sem/Sem_run-01/stereo_1SH07A0.wav	1.0	1	1.384
114.92	4.3439999999999985	S_C	1.0	n/a	n/a	1.0	1.119	Sem/Sem_run-01/ContS07.wav	1.0	1	1.869
119.273	3.5	S_H	1.0	n/a	n/a	1.0	1.7169999999999999	Sem/Sem_run-01/stereo_1SH03A0.wav	1.0	1	1.467
122.77600000000001	3.919	S_U	2.0	n/a	n/a	1.0	1.891	Sem/Sem_run-01/stereo_1SU45A0.wav	1.0	0	1.641
126.695	3.5	S_H	1.0	n/a	n/a	1.0	1.26	Sem/Sem_run-01/stereo_1SH06A0.wav	1.0	1	1.01
130.19799999999998	3.392	S_L	1.0	n/a	n/a	n/a	n/a	Sem/Sem_run-01/stereo_2SL62A0.wav	n/a	0	n/a
133.6	3.54	S_C	1.0	n/a	n/a	1.0	2.149	Sem/Sem_run-01/ContS19.wav	1.0	1	2.899
137.153	4.4	S_H	1.0	n/a	n/a	1.0	1.669	Sem/Sem_run-01/stereo_1SH15A0.wav	1.0	1	1.419
141.556	3.342	S_H	1.0	n/a	n/a	1.0	1.266	Sem/Sem_run-01/stereo_1SH11A0.wav	1.0	1	1.016
144.909	3.385	S_U	2.0	n/a	n/a	2.0	1.722	Sem/Sem_run-01/stereo_1SU44A0.wav	2.0	1	1.472
148.295	3.4160000000000004	S_H	1.0	n/a	n/a	1.0	1.8230000000000002	Sem/Sem_run-01/stereo_2SH56A0.wav	1.0	1	1.573
151.714	3.849	S_U	2.0	n/a	n/a	2.0	1.551	Sem/Sem_run-01/stereo_2SU82A0.wav	2.0	1	1.301
155.567	3.934	S_C	1.0	n/a	n/a	1.0	1.415	Sem/Sem_run-01/ContS13.wav	1.0	1	2.165
159.503	4.309	S_L	1.0	n/a	n/a	1.0	1.089	Sem/Sem_run-01/stereo_2SL64A0.wav	1.0	1	0.839
163.82299999999995	4.413	S_C	1.0	n/a	n/a	1.0	2.068	Sem/Sem_run-01/ContS17.wav	1.0	1	2.818
168.243	4.2	S_U	2.0	n/a	n/a	2.0	2.189	Sem/Sem_run-01/stereo_2SU90A0.wav	2.0	1	1.939
172.446	3.846	S_U	2.0	n/a	n/a	1.0	1.256	Sem/Sem_run-01/stereo_2SU88A0.wav	1.0	0	1.006
176.299	3.3939999999999997	S_C	1.0	n/a	n/a	1.0	1.253	Sem/Sem_run-01/ContS01.wav	1.0	1	2.003
179.702	4.013	S_C	1.0	n/a	n/a	1.0	1.4340000000000002	Sem/Sem_run-01/ContS23.wav	1.0	1	2.184
183.722	4.227	S_H	1.0	n/a	n/a	1.0	1.984	Sem/Sem_run-01/stereo_1SH08A0.wav	1.0	1	1.734
