onset	duration	trial_type	correct	window1_response	window1_RT	window2_response	window2_RT	stim_file	calculated_response	calculated_accuracy	calculated_RT
1.085	3.4539999999999997	P_R	1.0	n/a	n/a	n/a	n/a	Phon/Phon_run-01/stereo_PR01.wav	n/a	0	n/a
4.5539999999999985	3.767	P_O	1.0	n/a	n/a	1.0	1.261	Phon/Phon_run-01/PC018.wav	1.0	1	1.011
8.323	3.391	P_O	1.0	n/a	n/a	2.0	1.5619999999999998	Phon/Phon_run-01/PC009.wav	2.0	0	1.3119999999999998
11.725999999999999	4.374	P_C	1.0	n/a	n/a	1.0	0.20199999999999999	Phon/Phon_run-01/ContS11.wav	1.0	1	0.952
16.113	3.345	P_U	2.0	n/a	n/a	2.0	1.219	Phon/Phon_run-01/PM002.wav	2.0	1	0.9690000000000001
19.465	4.4510000000000005	P_C	1.0	n/a	n/a	1.0	0.153	Phon/Phon_run-01/ContS21.wav	1.0	1	0.903
23.919	4.382	P_O	1.0	n/a	n/a	2.0	1.597	Phon/Phon_run-01/PC005.wav	2.0	0	1.347
28.305	3.3	P_U	2.0	n/a	n/a	2.0	1.5219999999999998	Phon/Phon_run-01/stereo_PU26.wav	2.0	1	1.2719999999999998
31.608	4.324	P_C	1.0	n/a	n/a	1.0	0.138	Phon/Phon_run-01/ContS03.wav	1.0	1	0.888
35.945	4.378	P_R	1.0	n/a	n/a	1.0	1.143	Phon/Phon_run-01/stereo_PR29.wav	1.0	1	0.893
40.330999999999996	3.4810000000000003	P_U	2.0	n/a	n/a	2.0	1.318	Phon/Phon_run-01/PM020.wav	2.0	1	1.068
43.817	4.393	P_O	1.0	n/a	n/a	2.0	1.7009999999999998	Phon/Phon_run-01/PC027.wav	2.0	0	1.4509999999999998
48.221000000000004	4.4	P_R	1.0	n/a	n/a	1.0	1.3769999999999998	Phon/Phon_run-01/stereo_PR11.wav	1.0	1	1.1269999999999998
52.62399999999999	3.884	P_C	1.0	n/a	n/a	1.0	0.354	Phon/Phon_run-01/ContS05.wav	1.0	1	1.104
56.51	3.891	P_U	2.0	n/a	n/a	2.0	2.0980000000000003	Phon/Phon_run-01/stereo_PU28.wav	2.0	1	1.8480000000000003
60.413000000000004	4.4	P_O	1.0	n/a	n/a	1.0	1.474	Phon/Phon_run-01/PC013.wav	1.0	1	1.224
64.817	3.513	P_C	1.0	n/a	n/a	1.0	0.17600000000000002	Phon/Phon_run-01/ContS17.wav	1.0	1	0.926
68.336	4.4	P_U	2.0	n/a	n/a	2.0	2.5639999999999996	Phon/Phon_run-01/PM027.wav	2.0	1	2.314
72.73899999999998	4.4	P_O	1.0	n/a	n/a	1.0	1.266	Phon/Phon_run-01/PC021.wav	1.0	1	1.016
77.143	4.496	P_C	1.0	n/a	n/a	1.0	0.012	Phon/Phon_run-01/ContS29.wav	1.0	1	0.762
81.646	3.3680000000000003	P_R	1.0	n/a	n/a	1.0	1.518	Phon/Phon_run-01/stereo_PR25.wav	1.0	1	1.268
85.015	3.95	P_O	1.0	n/a	n/a	2.0	1.614	Phon/Phon_run-01/PC012.wav	2.0	0	1.364
88.969	3.95	P_U	2.0	n/a	n/a	1.0	1.484	Phon/Phon_run-01/PM003.wav	1.0	0	1.234
92.92200000000001	3.939	P_O	1.0	n/a	n/a	1.0	1.474	Phon/Phon_run-01/PC004.wav	1.0	1	1.224
96.875	3.59	P_C	1.0	n/a	n/a	1.0	0.006999999999999999	Phon/Phon_run-01/ContS27.wav	1.0	1	0.757
100.477	4.296	P_U	2.0	n/a	n/a	2.0	1.5	Phon/Phon_run-01/stereo_PU21.wav	2.0	1	1.25
104.781	3.862	P_R	1.0	n/a	n/a	1.0	1.652	Phon/Phon_run-01/stereo_PR26.wav	1.0	1	1.402
108.65	3.95	P_O	1.0	n/a	n/a	2.0	1.5719999999999998	Phon/Phon_run-01/PC026.wav	2.0	0	1.3219999999999998
112.603	3.5	P_O	1.0	n/a	n/a	2.0	1.7009999999999998	Phon/Phon_run-01/PC025.wav	2.0	0	1.4509999999999998
116.10600000000001	4.013	P_C	1.0	n/a	n/a	1.0	0.248	Phon/Phon_run-01/ContS23.wav	1.0	1	0.998
120.126	3.792	P_R	1.0	n/a	n/a	1.0	1.403	Phon/Phon_run-01/stereo_PR18.wav	1.0	1	1.153
123.929	3.346	P_U	2.0	n/a	n/a	2.0	1.21	Phon/Phon_run-01/stereo_PU19.wav	2.0	1	0.96
127.281	3.891	P_R	1.0	n/a	n/a	1.0	1.3430000000000002	Phon/Phon_run-01/stereo_PR03.wav	1.0	1	1.0930000000000002
131.184	3.355	P_O	1.0	n/a	n/a	1.0	1.992	Phon/Phon_run-01/PC003.wav	1.0	1	1.742
134.553	3.951	P_C	1.0	n/a	n/a	1.0	0.11	Phon/Phon_run-01/ContS15.wav	1.0	1	0.86
138.507	3.74	P_U	2.0	n/a	n/a	2.0	1.594	Phon/Phon_run-01/stereo_PU16.wav	2.0	1	1.344
142.259	3.95	P_R	1.0	n/a	n/a	1.0	1.3219999999999998	Phon/Phon_run-01/stereo_PR10.wav	1.0	1	1.0719999999999998
146.21200000000005	3.464	P_C	1.0	n/a	n/a	1.0	0.047	Phon/Phon_run-01/ContS09.wav	1.0	1	0.797
149.68200000000004	4.275	P_R	1.0	n/a	n/a	1.0	1.2890000000000001	Phon/Phon_run-01/stereo_PR04.wav	1.0	1	1.039
153.968	3.95	P_U	2.0	n/a	n/a	1.0	1.4880000000000002	Phon/Phon_run-01/PM023.wav	1.0	0	1.2380000000000002
157.921	4.4	P_U	2.0	n/a	n/a	2.0	1.483	Phon/Phon_run-01/PM001.wav	2.0	1	1.233
162.325	3.665	P_C	1.0	n/a	n/a	1.0	0.183	Phon/Phon_run-01/ContS35.wav	1.0	1	0.933
165.99400000000003	3.463	P_O	1.0	n/a	n/a	1.0	1.474	Phon/Phon_run-01/PC017.wav	1.0	1	1.224
169.46400000000003	4.332	P_R	1.0	n/a	n/a	1.0	1.107	Phon/Phon_run-01/stereo_PR19.wav	1.0	1	0.857
173.8	4.083	P_C	1.0	n/a	n/a	1.0	0.032	Phon/Phon_run-01/ContS33.wav	1.0	1	0.782
177.887	3.5	P_R	1.0	n/a	n/a	n/a	n/a	Phon/Phon_run-01/stereo_PR17.wav	n/a	0	n/a
181.389	4.2669999999999995	P_U	2.0	n/a	n/a	1.0	1.192	Phon/Phon_run-01/PM009.wav	1.0	0	0.942
185.65900000000002	3.4389999999999996	P_R	1.0	n/a	n/a	1.0	1.359	Phon/Phon_run-01/stereo_PR09.wav	1.0	1	1.109
