onset	duration	trial_type	correct	window1_response	window1_RT	window2_response	window2_RT	stim_file	calculated_response	calculated_accuracy	calculated_RT
1.0924	3.5	P_R	1.0	n/a	n/a	1.0	2.147	Phon/Phon_run-02/stereo_PR20.wav	1.0	1	1.8969999999999998
4.595	4.235	P_O	1.0	n/a	n/a	1.0	2.194	Phon/Phon_run-02/PC034.wav	1.0	1	1.944
8.8325	3.375	P_R	1.0	n/a	n/a	1.0	1.371	Phon/Phon_run-02/stereo_PR13.wav	1.0	1	1.121
12.2183	3.474	P_C	1.0	n/a	n/a	1.0	0.309	Phon/Phon_run-02/ContS12.wav	1.0	1	1.059
15.7041	3.875	P_U	2.0	n/a	n/a	2.0	1.371	Phon/Phon_run-02/PM025.wav	2.0	1	1.121
19.5903	3.726	P_R	1.0	n/a	n/a	1.0	1.178	Phon/Phon_run-02/stereo_PR22.wav	1.0	1	0.9279999999999999
23.3263	3.451	P_O	1.0	n/a	n/a	1.0	2.113	Phon/Phon_run-02/PC014.wav	1.0	1	1.863
26.7799	3.779	P_C	1.0	n/a	n/a	1.0	0.8059999999999999	Phon/Phon_run-02/ContS02.wav	1.0	1	1.556
30.566	3.821	P_U	2.0	n/a	n/a	2.0	1.495	Phon/Phon_run-02/stereo_PU18.wav	2.0	1	1.245
34.402	3.49	P_U	2.0	n/a	n/a	n/a	n/a	Phon/Phon_run-02/stereo_PU12.wav	n/a	0	n/a
37.9046	4.38	P_C	1.0	n/a	n/a	1.0	0.256	Phon/Phon_run-02/ContS32.wav	1.0	1	1.006
42.291000000000004	4.0969999999999995	P_R	1.0	n/a	n/a	1.0	1.5959999999999999	Phon/Phon_run-02/stereo_PR16.wav	1.0	1	1.346
46.394	3.5	P_O	1.0	n/a	n/a	1.0	2.0340000000000003	Phon/Phon_run-02/PC022.wav	1.0	1	1.7840000000000003
49.8966	4.0760000000000005	P_R	1.0	n/a	n/a	1.0	1.63	Phon/Phon_run-02/stereo_PR08.wav	1.0	1	1.38
53.983000000000004	3.5	P_O	1.0	n/a	n/a	1.0	1.7530000000000001	Phon/Phon_run-02/PC028.wav	1.0	1	1.503
57.4856	3.5	P_U	2.0	n/a	n/a	n/a	n/a	Phon/Phon_run-02/stereo_PU27.wav	n/a	0	n/a
60.9881	3.819	P_C	1.0	n/a	n/a	1.0	1.615	Phon/Phon_run-02/ContS06.wav	1.0	1	2.365
64.8086	4.25	P_O	1.0	n/a	n/a	1.0	1.5930000000000002	Phon/Phon_run-02/PC031.wav	1.0	1	1.3430000000000002
69.062	3.662	P_C	1.0	n/a	n/a	1.0	1.18	Phon/Phon_run-02/ContS36.wav	1.0	1	1.93
72.7312	3.823	P_O	1.0	n/a	n/a	1.0	2.101	Phon/Phon_run-02/PC023.wav	1.0	1	1.851
76.5674	4.323	P_C	1.0	n/a	n/a	1.0	1.141	Phon/Phon_run-02/ContS24.wav	1.0	1	1.891
80.9038	3.865	P_U	2.0	n/a	n/a	2.0	1.57	Phon/Phon_run-02/PM004.wav	2.0	1	1.32
84.7733	3.875	P_O	1.0	n/a	n/a	1.0	1.713	Phon/Phon_run-02/PC007.wav	1.0	1	1.463
88.6594	4.25	P_U	2.0	n/a	n/a	2.0	2.38	Phon/Phon_run-02/PM011.wav	2.0	1	2.13
92.9126	4.362	P_C	1.0	n/a	n/a	1.0	1.136	Phon/Phon_run-02/ContS30.wav	1.0	1	1.886
97.2825	3.875	P_O	1.0	n/a	n/a	1.0	2.299	Phon/Phon_run-02/PC030.wav	1.0	1	2.049
101.1687	3.3360000000000003	P_R	1.0	n/a	n/a	1.0	1.41	Phon/Phon_run-02/stereo_PR05.wav	1.0	1	1.16
104.5077	4.113	P_U	2.0	n/a	n/a	2.0	1.3430000000000002	Phon/Phon_run-02/stereo_PU01.wav	2.0	1	1.0930000000000002
108.6273	4.1739999999999995	P_U	2.0	n/a	n/a	2.0	2.013	Phon/Phon_run-02/PM029.wav	2.0	1	1.763
112.8137	3.4539999999999997	P_C	1.0	n/a	n/a	1.0	0.872	Phon/Phon_run-02/ContS08.wav	1.0	1	1.6219999999999999
116.2828	3.446	P_R	1.0	n/a	n/a	1.0	1.9369999999999998	Phon/Phon_run-02/stereo_PR30.wav	1.0	1	1.687
119.7352	3.85	P_R	1.0	n/a	n/a	1.0	1.37	Phon/Phon_run-02/stereo_PR07.wav	1.0	1	1.12
123.588	3.438	P_U	2.0	n/a	n/a	2.0	1.351	Phon/Phon_run-02/stereo_PU02.wav	2.0	1	1.101
127.0406	3.915	P_C	1.0	n/a	n/a	1.0	1.0490000000000002	Phon/Phon_run-02/ContS20.wav	1.0	1	1.7990000000000002
130.9601	3.487	P_U	2.0	n/a	n/a	2.0	1.464	Phon/Phon_run-02/PM021.wav	2.0	1	1.214
134.46200000000002	3.965	P_C	1.0	n/a	n/a	1.0	0.8909999999999999	Phon/Phon_run-02/ContS26.wav	1.0	1	1.641
138.4315	3.792	P_R	1.0	n/a	n/a	1.0	1.436	Phon/Phon_run-02/stereo_PR31.wav	1.0	1	1.186
142.2343	4.135	P_O	1.0	n/a	n/a	1.0	2.062	Phon/Phon_run-02/PC024.wav	1.0	1	1.8119999999999998
146.3717	3.875	P_U	2.0	n/a	n/a	2.0	1.459	Phon/Phon_run-02/PM010.wav	2.0	1	1.209
150.2579	3.875	P_O	1.0	n/a	n/a	1.0	1.28	Phon/Phon_run-02/PC015.wav	1.0	1	1.03
154.144	4.245	P_C	1.0	n/a	n/a	1.0	0.92	Phon/Phon_run-02/ContS14.wav	1.0	1	1.67
158.3971	3.854	P_R	1.0	n/a	n/a	1.0	1.8880000000000001	Phon/Phon_run-02/stereo_PR14.wav	1.0	1	1.638
162.2662	4.239	P_O	1.0	n/a	n/a	1.0	1.646	Phon/Phon_run-02/PC008.wav	1.0	1	1.396
166.5192	4.25	P_U	2.0	n/a	n/a	2.0	2.147	Phon/Phon_run-02/stereo_PU11.wav	2.0	1	1.8969999999999998
170.7726	3.523	P_C	1.0	n/a	n/a	1.0	1.028	Phon/Phon_run-02/ContS18.wav	1.0	1	1.778
174.3085	3.429	P_O	1.0	n/a	n/a	1.0	1.94	Phon/Phon_run-02/PC006.wav	1.0	1	1.69
177.7443	4.18	P_R	1.0	n/a	n/a	1.0	1.499	Phon/Phon_run-02/stereo_PR32.wav	1.0	1	1.249
181.9307	4.104	P_R	1.0	n/a	n/a	1.0	1.314	Phon/Phon_run-02/stereo_PR24.wav	1.0	1	1.064
