onset	duration	trial_type	correct	window1_response	window1_RT	window2_response	window2_RT	stim_file	calculated_response	calculated_accuracy	calculated_RT
1.084	3.5	P_R	1.0	n/a	n/a	1.0	1.565	Phon/Phon_run-02/stereo_PR20.wav	1.0	1	1.315
4.587	4.235	P_O	1.0	n/a	n/a	1.0	1.423	Phon/Phon_run-02/PC034.wav	1.0	1	1.173
8.823	3.375	P_R	1.0	n/a	n/a	1.0	1.567	Phon/Phon_run-02/stereo_PR13.wav	1.0	1	1.317
12.209000000000001	3.474	P_C	1.0	n/a	n/a	1.0	1.4080000000000001	Phon/Phon_run-02/ContS12.wav	1.0	1	2.158
15.695	3.875	P_U	2.0	n/a	n/a	2.0	1.364	Phon/Phon_run-02/PM025.wav	2.0	1	1.114
19.582	3.726	P_R	1.0	n/a	n/a	1.0	1.3559999999999999	Phon/Phon_run-02/stereo_PR22.wav	1.0	1	1.106
23.318	3.451	P_O	1.0	n/a	n/a	1.0	1.329	Phon/Phon_run-02/PC014.wav	1.0	1	1.079
26.77	3.779	P_C	1.0	n/a	n/a	1.0	1.2670000000000001	Phon/Phon_run-02/ContS02.wav	1.0	1	2.017
30.557	3.821	P_U	2.0	n/a	n/a	2.0	1.4169999999999998	Phon/Phon_run-02/stereo_PU18.wav	2.0	1	1.1669999999999998
34.393	3.49	P_U	2.0	n/a	n/a	2.0	2.002	Phon/Phon_run-02/stereo_PU12.wav	2.0	1	1.7519999999999998
37.895	4.38	P_C	1.0	n/a	n/a	1.0	1.824	Phon/Phon_run-02/ContS32.wav	1.0	1	2.574
42.282	4.0969999999999995	P_R	1.0	n/a	n/a	1.0	1.355	Phon/Phon_run-02/stereo_PR16.wav	1.0	1	1.105
46.385	3.5	P_O	1.0	n/a	n/a	1.0	1.663	Phon/Phon_run-02/PC022.wav	1.0	1	1.413
49.88800000000001	4.0760000000000005	P_R	1.0	n/a	n/a	1.0	2.24	Phon/Phon_run-02/stereo_PR08.wav	1.0	1	1.9900000000000002
53.974	3.5	P_O	1.0	n/a	n/a	n/a	n/a	Phon/Phon_run-02/PC028.wav	n/a	0	n/a
57.477	3.5	P_U	2.0	n/a	n/a	2.0	1.7380000000000002	Phon/Phon_run-02/stereo_PU27.wav	2.0	1	1.4880000000000002
60.98	3.819	P_C	1.0	n/a	n/a	1.0	1.472	Phon/Phon_run-02/ContS06.wav	1.0	1	2.222
64.79899999999999	4.25	P_O	1.0	n/a	n/a	1.0	2.364	Phon/Phon_run-02/PC031.wav	1.0	1	2.114
69.053	3.662	P_C	1.0	n/a	n/a	1.0	1.584	Phon/Phon_run-02/ContS36.wav	1.0	1	2.334
72.722	3.823	P_O	1.0	n/a	n/a	1.0	1.589	Phon/Phon_run-02/PC023.wav	1.0	1	1.339
76.558	4.323	P_C	1.0	n/a	n/a	1.0	1.401	Phon/Phon_run-02/ContS24.wav	1.0	1	2.151
80.895	3.865	P_U	2.0	n/a	n/a	2.0	1.46	Phon/Phon_run-02/PM004.wav	2.0	1	1.21
84.765	3.875	P_O	1.0	n/a	n/a	1.0	1.483	Phon/Phon_run-02/PC007.wav	1.0	1	1.233
88.65100000000002	4.25	P_U	2.0	n/a	n/a	2.0	2.2640000000000002	Phon/Phon_run-02/PM011.wav	2.0	1	2.014
92.904	4.362	P_C	1.0	n/a	n/a	1.0	1.518	Phon/Phon_run-02/ContS30.wav	1.0	1	2.268
97.274	3.875	P_O	1.0	n/a	n/a	2.0	2.0340000000000003	Phon/Phon_run-02/PC030.wav	2.0	0	1.7840000000000003
101.16	3.3360000000000003	P_R	1.0	n/a	n/a	1.0	1.206	Phon/Phon_run-02/stereo_PR05.wav	1.0	1	0.956
104.49600000000001	4.113	P_U	2.0	n/a	n/a	2.0	2.145	Phon/Phon_run-02/stereo_PU01.wav	2.0	1	1.895
108.616	4.1739999999999995	P_U	2.0	n/a	n/a	2.0	2.057	Phon/Phon_run-02/PM029.wav	2.0	1	1.807
112.803	3.4539999999999997	P_C	1.0	n/a	n/a	1.0	1.256	Phon/Phon_run-02/ContS08.wav	1.0	1	2.0060000000000002
116.272	3.446	P_R	1.0	n/a	n/a	1.0	1.546	Phon/Phon_run-02/stereo_PR30.wav	1.0	1	1.296
119.725	3.85	P_R	1.0	n/a	n/a	1.0	1.8880000000000001	Phon/Phon_run-02/stereo_PR07.wav	1.0	1	1.638
123.57799999999999	3.438	P_U	2.0	n/a	n/a	2.0	1.371	Phon/Phon_run-02/stereo_PU02.wav	2.0	1	1.121
127.03	3.915	P_C	1.0	n/a	n/a	1.0	1.2990000000000002	Phon/Phon_run-02/ContS20.wav	1.0	1	2.0490000000000004
130.95	3.487	P_U	2.0	n/a	n/a	2.0	1.238	Phon/Phon_run-02/PM021.wav	2.0	1	0.988
134.453	3.965	P_C	1.0	n/a	n/a	1.0	1.199	Phon/Phon_run-02/ContS26.wav	1.0	1	1.949
138.422	3.792	P_R	1.0	n/a	n/a	1.0	1.4480000000000002	Phon/Phon_run-02/stereo_PR31.wav	1.0	1	1.1980000000000002
142.225	4.135	P_O	1.0	n/a	n/a	1.0	1.321	Phon/Phon_run-02/PC024.wav	1.0	1	1.071
146.362	3.875	P_U	2.0	n/a	n/a	2.0	1.367	Phon/Phon_run-02/PM010.wav	2.0	1	1.117
150.248	3.875	P_O	1.0	n/a	n/a	1.0	1.452	Phon/Phon_run-02/PC015.wav	1.0	1	1.202
154.134	4.245	P_C	1.0	n/a	n/a	1.0	1.3980000000000001	Phon/Phon_run-02/ContS14.wav	1.0	1	2.1479999999999997
158.388	3.854	P_R	1.0	n/a	n/a	1.0	1.518	Phon/Phon_run-02/stereo_PR14.wav	1.0	1	1.268
162.257	4.239	P_O	1.0	n/a	n/a	2.0	2.08	Phon/Phon_run-02/PC008.wav	2.0	0	1.83
166.51	4.25	P_U	2.0	n/a	n/a	2.0	1.5819999999999999	Phon/Phon_run-02/stereo_PU11.wav	2.0	1	1.332
170.764	3.523	P_C	1.0	n/a	n/a	1.0	1.334	Phon/Phon_run-02/ContS18.wav	1.0	1	2.084
174.3	3.429	P_O	1.0	n/a	n/a	1.0	1.5419999999999998	Phon/Phon_run-02/PC006.wav	1.0	1	1.2919999999999998
177.736	4.18	P_R	1.0	n/a	n/a	2.0	2.331	Phon/Phon_run-02/stereo_PR32.wav	2.0	0	2.081
181.922	4.104	P_R	1.0	n/a	n/a	1.0	1.499	Phon/Phon_run-02/stereo_PR24.wav	1.0	1	1.249
