onset	duration	trial_type	correct	window1_response	window1_RT	window2_response	window2_RT	stim_file	calculated_response	calculated_accuracy	calculated_RT
1.085	4.2	S_U	2.0	n/a	n/a	2.0	1.8	Sem/Sem_run-01/stereo_1SU41A0.wav	2.0	1	1.55
5.2879999999999985	3.596	S_C	1.0	n/a	n/a	1.0	0.585	Sem/Sem_run-01/ContS29.wav	1.0	1	1.335
8.891	3.425	S_U	2.0	n/a	n/a	2.0	1.307	Sem/Sem_run-01/stereo_2SU87A0.wav	2.0	1	1.057
12.327	3.933	S_H	1.0	n/a	n/a	1.0	1.4040000000000001	Sem/Sem_run-01/stereo_1SH13A0.wav	1.0	1	1.154
16.264	4.323	S_H	1.0	n/a	n/a	1.0	0.98	Sem/Sem_run-01/stereo_1SH05A0.wav	1.0	1	0.73
20.6	4.073	S_C	1.0	n/a	n/a	1.0	2.0340000000000003	Sem/Sem_run-01/ContS31.wav	1.0	1	2.7840000000000003
24.686999999999998	3.869	S_L	1.0	n/a	n/a	1.0	1.36	Sem/Sem_run-01/stereo_2SL63A0.wav	1.0	1	1.11
28.557	3.75	S_L	1.0	n/a	n/a	1.0	1.265	Sem/Sem_run-01/stereo_1SL29A0.wav	1.0	1	1.015
32.31	4.3660000000000005	S_U	2.0	n/a	n/a	2.0	1.86	Sem/Sem_run-01/stereo_2SU78A0.wav	2.0	1	1.61
36.68	3.3	S_L	1.0	n/a	n/a	1.0	1.195	Sem/Sem_run-01/stereo_1SL17A0.wav	1.0	1	0.9450000000000001
39.983000000000004	3.884	S_C	1.0	n/a	n/a	1.0	0.603	Sem/Sem_run-01/ContS05.wav	1.0	1	1.353
43.869	4.371	S_H	1.0	n/a	n/a	1.0	2.557	Sem/Sem_run-01/stereo_2SH58A0.wav	1.0	1	2.307
48.256	4.329	S_L	1.0	n/a	n/a	1.0	1.9480000000000002	Sem/Sem_run-01/stereo_2SL72A0.wav	1.0	1	1.698
52.593	3.94	S_H	1.0	n/a	n/a	1.0	1.23	Sem/Sem_run-01/stereo_2SH57A0.wav	1.0	1	0.98
56.54600000000001	4.2	S_U	2.0	n/a	n/a	2.0	1.7080000000000002	Sem/Sem_run-01/stereo_2SU83A0.wav	2.0	1	1.4580000000000002
60.748999999999995	3.474	S_C	1.0	n/a	n/a	1.0	0.638	Sem/Sem_run-01/ContS11.wav	1.0	1	1.388
64.236	4.271	S_L	1.0	n/a	n/a	1.0	1.794	Sem/Sem_run-01/stereo_1SL26A0.wav	1.0	1	1.544
68.52199999999999	3.91	S_L	1.0	n/a	n/a	1.0	1.2670000000000001	Sem/Sem_run-01/stereo_1SL25A0.wav	1.0	1	1.017
72.442	4.479	S_C	1.0	n/a	n/a	1.0	0.672	Sem/Sem_run-01/ContS25.wav	1.0	1	1.4220000000000002
76.929	3.378	S_U	2.0	n/a	n/a	2.0	1.199	Sem/Sem_run-01/stereo_2SU81A0.wav	2.0	1	0.9490000000000001
80.315	3.42	S_L	1.0	n/a	n/a	1.0	1.885	Sem/Sem_run-01/stereo_1SL27A0.wav	1.0	1	1.635
83.735	4.3439999999999985	S_L	1.0	n/a	n/a	1.0	1.514	Sem/Sem_run-01/stereo_1SL30A0.wav	1.0	1	1.264
88.088	3.909	S_L	1.0	n/a	n/a	1.0	1.548	Sem/Sem_run-01/stereo_2SL71A0.wav	1.0	1	1.298
92.008	3.867	S_H	1.0	n/a	n/a	1.0	1.3840000000000001	Sem/Sem_run-01/stereo_1SH04A0.wav	1.0	1	1.134
95.87799999999999	3.828	S_U	2.0	n/a	n/a	2.0	1.443	Sem/Sem_run-01/stereo_1SU37A0.wav	2.0	1	1.193
99.714	4.565	S_C	1.0	n/a	n/a	1.0	0.5529999999999999	Sem/Sem_run-01/ContS35.wav	1.0	1	1.303
104.285	3.3	S_U	2.0	n/a	n/a	2.0	1.3980000000000001	Sem/Sem_run-01/stereo_1SU35A0.wav	2.0	1	1.148
107.587	3.477	S_L	1.0	n/a	n/a	1.0	1.817	Sem/Sem_run-01/stereo_2SL65A0.wav	1.0	1	1.567
111.073	3.83	S_H	1.0	n/a	n/a	1.0	1.31	Sem/Sem_run-01/stereo_1SH07A0.wav	1.0	1	1.06
114.91	4.3439999999999985	S_C	1.0	n/a	n/a	1.0	0.861	Sem/Sem_run-01/ContS07.wav	1.0	1	1.611
119.26299999999999	3.5	S_H	1.0	n/a	n/a	1.0	1.224	Sem/Sem_run-01/stereo_1SH03A0.wav	1.0	1	0.974
122.766	3.919	S_U	2.0	n/a	n/a	2.0	1.96	Sem/Sem_run-01/stereo_1SU45A0.wav	2.0	1	1.71
126.686	3.5	S_H	1.0	n/a	n/a	1.0	1.176	Sem/Sem_run-01/stereo_1SH06A0.wav	1.0	1	0.9259999999999999
130.189	3.392	S_L	1.0	n/a	n/a	1.0	1.625	Sem/Sem_run-01/stereo_2SL62A0.wav	1.0	1	1.375
133.592	3.54	S_C	1.0	n/a	n/a	1.0	0.628	Sem/Sem_run-01/ContS19.wav	1.0	1	1.3780000000000001
137.144	4.4	S_H	1.0	n/a	n/a	1.0	1.157	Sem/Sem_run-01/stereo_1SH15A0.wav	1.0	1	0.907
141.548	3.342	S_H	1.0	n/a	n/a	1.0	1.044	Sem/Sem_run-01/stereo_1SH11A0.wav	1.0	1	0.794
144.901	3.385	S_U	2.0	n/a	n/a	2.0	1.244	Sem/Sem_run-01/stereo_1SU44A0.wav	2.0	1	0.994
148.287	3.4160000000000004	S_H	1.0	n/a	n/a	1.0	1.158	Sem/Sem_run-01/stereo_2SH56A0.wav	1.0	1	0.9079999999999999
151.70600000000005	3.849	S_U	2.0	n/a	n/a	2.0	1.431	Sem/Sem_run-01/stereo_2SU82A0.wav	2.0	1	1.181
155.559	3.934	S_C	1.0	n/a	n/a	1.0	0.304	Sem/Sem_run-01/ContS13.wav	1.0	1	1.054
159.496	4.309	S_L	1.0	n/a	n/a	1.0	1.405	Sem/Sem_run-01/stereo_2SL64A0.wav	1.0	1	1.155
163.816	4.413	S_C	1.0	n/a	n/a	1.0	1.113	Sem/Sem_run-01/ContS17.wav	1.0	1	1.863
168.236	4.2	S_U	2.0	n/a	n/a	2.0	1.544	Sem/Sem_run-01/stereo_2SU90A0.wav	2.0	1	1.294
172.44	3.846	S_U	2.0	n/a	n/a	2.0	1.531	Sem/Sem_run-01/stereo_2SU88A0.wav	2.0	1	1.281
176.293	3.3939999999999997	S_C	1.0	n/a	n/a	1.0	0.8390000000000001	Sem/Sem_run-01/ContS01.wav	1.0	1	1.589
179.695	4.013	S_C	1.0	n/a	n/a	n/a	n/a	Sem/Sem_run-01/ContS23.wav	n/a	0	n/a
183.715	4.227	S_H	1.0	n/a	n/a	1.0	1.2	Sem/Sem_run-01/stereo_1SH08A0.wav	1.0	1	0.95
