onset	duration	trial_type	correct	window1_response	window1_RT	window2_response	window2_RT	stim_file	calculated_response	calculated_accuracy	calculated_RT
1.068	7.034	SP_W	1.0	n/a	n/a	1.0	4.103	Plaus/Plaus_run-01/stereo_PW85.wav	1.0	1	1.9559999999999995
8.107000000000001	5.641	SP_I	2.0	n/a	n/a	2.0	2.585	Plaus/Plaus_run-01/stereo_PI11.wav	2.0	1	1.6649999999999998
13.761	6.77	SP_C	1.0	n/a	n/a	1.0	0.35700000000000004	Plaus/Plaus_run-01/CoM08b.wav	1.0	1	1.107
20.534	7.327000000000001	SP_W	1.0	n/a	n/a	1.0	3.971	Plaus/Plaus_run-01/stereo_PW72.wav	1.0	1	1.9909999999999999
27.873	6.145	SP_C	1.0	n/a	n/a	1.0	1.155	Plaus/Plaus_run-01/CoM05d.wav	1.0	1	1.905
34.028	5.181	SP_I	2.0	n/a	n/a	2.0	2.813	Plaus/Plaus_run-01/stereo_PI65.wav	2.0	1	1.871
39.215	5.092	SP_S	1.0	n/a	n/a	1.0	2.767	Plaus/Plaus_run-01/stereo_PC13.wav	1.0	1	1.7039999999999995
44.319	7.355	SP_C	1.0	n/a	n/a	1.0	0.972	Plaus/Plaus_run-01/CoM06l.wav	1.0	1	1.722
51.675	7.47	SP_I	2.0	n/a	n/a	2.0	4.129	Plaus/Plaus_run-01/stereo_PI90.wav	2.0	1	1.958
59.148	7.399	SP_S	1.0	n/a	n/a	1.0	3.754	Plaus/Plaus_run-01/stereo_PC35.wav	1.0	1	1.4869999999999997
66.554	5.685	SP_S	1.0	n/a	n/a	1.0	2.914	Plaus/Plaus_run-01/stereo_PC47.wav	1.0	1	1.905
72.242	5.669	SP_W	1.0	n/a	n/a	1.0	3.099	Plaus/Plaus_run-01/stereo_PW19.wav	1.0	1	2.093
77.913	7.9	SP_C	1.0	n/a	n/a	2.0	0.589	Plaus/Plaus_run-01/CoM03l.wav	2.0	0	1.339
85.82	5.145	SP_I	2.0	n/a	n/a	2.0	3.004	Plaus/Plaus_run-01/stereo_PI09.wav	2.0	1	1.996
90.974	6.9170000000000025	SP_W	1.0	n/a	n/a	1.0	4.037	Plaus/Plaus_run-01/stereo_PW30.wav	1.0	1	1.917
97.896	5.738	SP_S	1.0	n/a	n/a	1.0	3.178	Plaus/Plaus_run-01/stereo_PC14.wav	1.0	1	2.007
103.634	6.276	SP_W	1.0	n/a	n/a	1.0	2.63	Plaus/Plaus_run-01/stereo_PW50.wav	1.0	1	1.808
109.922	5.49	SP_C	1.0	n/a	n/a	1.0	0.893	Plaus/Plaus_run-01/CoM03d.wav	1.0	1	1.643
115.427	5.7	SP_I	2.0	n/a	n/a	2.0	2.829	Plaus/Plaus_run-01/stereo_PI67.wav	2.0	1	1.938
121.131	7.237	SP_S	1.0	n/a	n/a	1.0	3.535	Plaus/Plaus_run-01/stereo_PC68.wav	1.0	1	1.569
128.371	6.49	SP_C	1.0	n/a	n/a	1.0	0.838	Plaus/Plaus_run-01/CoM03b.wav	1.0	1	1.588
134.876	6.25	SP_W	1.0	n/a	n/a	1.0	2.8110000000000004	Plaus/Plaus_run-01/stereo_PW61.wav	1.0	1	1.8310000000000004
141.131	6.952999999999999	SP_I	2.0	n/a	n/a	2.0	3.948	Plaus/Plaus_run-01/stereo_PI32.wav	2.0	1	1.7830000000000001
148.086	7.085	SP_C	1.0	n/a	n/a	1.0	0.655	Plaus/Plaus_run-01/CoM02e.wav	1.0	1	1.405
155.175	6.3610000000000015	SP_S	1.0	n/a	n/a	1.0	4.158	Plaus/Plaus_run-01/stereo_PC24.wav	1.0	1	1.9000000000000004
161.547	5.1110000000000015	SP_W	1.0	n/a	n/a	1.0	2.4730000000000003	Plaus/Plaus_run-01/stereo_PW53.wav	1.0	1	1.4590000000000003
166.668	6.2860000000000005	SP_I	2.0	n/a	n/a	2.0	4.228	Plaus/Plaus_run-01/stereo_PI42.wav	2.0	1	2.032
172.957	6.577000000000001	SP_S	1.0	n/a	n/a	1.0	2.897	Plaus/Plaus_run-01/stereo_PC57.wav	1.0	1	1.7019999999999995
179.545	5.273	SP_W	1.0	n/a	n/a	1.0	2.722	Plaus/Plaus_run-01/stereo_PW18.wav	1.0	1	1.555
184.833	5.77	SP_C	1.0	n/a	n/a	1.0	0.18600000000000005	Plaus/Plaus_run-01/CoM09b.wav	1.0	1	0.9359999999999999
190.604	6.731	SP_S	1.0	n/a	n/a	1.0	4.143	Plaus/Plaus_run-01/stereo_PC26.wav	1.0	1	2.043
197.343	7.212999999999999	SP_I	2.0	n/a	n/a	2.0	3.594	Plaus/Plaus_run-01/stereo_PI33.wav	2.0	1	1.6109999999999998
204.565	5.181	SP_S	1.0	n/a	n/a	1.0	2.6710000000000003	Plaus/Plaus_run-01/stereo_PC01.wav	1.0	1	1.7300000000000004
209.753	6.238	SP_S	1.0	n/a	n/a	1.0	3.824	Plaus/Plaus_run-01/stereo_PC36.wav	1.0	1	1.7779999999999996
215.991	7.73	SP_C	1.0	n/a	n/a	1.0	1.018	Plaus/Plaus_run-01/CoM10e.wav	1.0	1	1.768
223.731	6.843	SP_I	2.0	n/a	n/a	2.0	3.762	Plaus/Plaus_run-01/stereo_PI45.wav	2.0	1	1.6350000000000002
230.586	6.101	SP_W	1.0	n/a	n/a	1.0	3.783	Plaus/Plaus_run-01/stereo_PW28.wav	1.0	1	1.8509999999999995
236.691	7.419	SP_W	1.0	n/a	n/a	1.0	3.951	Plaus/Plaus_run-01/stereo_PW86.wav	1.0	1	1.9150000000000005
244.114	6.54	SP_C	1.0	n/a	n/a	1.0	0.904	Plaus/Plaus_run-01/CoM05e.wav	1.0	1	1.6540000000000001
250.669	6.247000000000001	SP_I	2.0	n/a	n/a	2.0	2.564	Plaus/Plaus_run-01/stereo_PI12.wav	2.0	1	1.6929999999999996
