onset	duration	trial_type	correct	window1_response	window1_RT	window2_response	window2_RT	stim_file	calculated_response	calculated_accuracy	calculated_RT
1.0907	4.2010000000000005	S_U	2.0	n/a	n/a	2.0	1.3519999999999999	Sem/Sem_run-02/stereo_1SU33A0.wav	2.0	1	1.102
5.2947	3.486	S_U	2.0	n/a	n/a	2.0	1.931	Sem/Sem_run-02/stereo_2SU85A0.wav	2.0	1	1.681
8.7817	3.8539999999999996	S_H	1.0	n/a	n/a	1.0	1.409	Sem/Sem_run-02/stereo_2SH50A0.wav	1.0	1	1.159
12.6503	3.454	S_C	1.0	n/a	n/a	1.0	0.154	Sem/Sem_run-02/ContS08.wav	1.0	1	0.904
16.1195	4.33	S_H	1.0	n/a	n/a	1.0	1.3430000000000002	Sem/Sem_run-02/stereo_1SH10A0.wav	1.0	1	1.0930000000000002
20.4559	3.872	S_L	1.0	n/a	n/a	2.0	2.34	Sem/Sem_run-02/stereo_2SL61A0.wav	2.0	0	2.09
24.3421	3.885	S_L	1.0	n/a	n/a	1.0	1.376	Sem/Sem_run-02/stereo_1SL23A0.wav	1.0	1	1.126
28.2293	4.2	S_U	2.0	n/a	n/a	2.0	1.305	Sem/Sem_run-02/stereo_1SU42A0.wav	2.0	1	1.055
32.4326	3.321	S_L	1.0	n/a	n/a	2.0	1.685	Sem/Sem_run-02/stereo_1SL16A0.wav	2.0	0	1.435
35.7684	3.59	S_C	1.0	n/a	n/a	1.0	0.27899999999999997	Sem/Sem_run-02/ContS26.wav	1.0	1	1.029
39.3711	4.4	S_H	1.0	n/a	n/a	1.0	1.535	Sem/Sem_run-02/stereo_2SH60A0.wav	1.0	1	1.285
43.7745	4.311	S_L	1.0	n/a	n/a	2.0	2.106	Sem/Sem_run-02/stereo_2SL75A0.wav	2.0	0	1.8559999999999999
48.0943	3.912	S_H	1.0	n/a	n/a	1.0	1.455	Sem/Sem_run-02/stereo_2SH59A0.wav	1.0	1	1.205
52.0138	4.4	S_U	2.0	n/a	n/a	2.0	1.483	Sem/Sem_run-02/stereo_2SU84A0.wav	2.0	1	1.233
56.4171	3.4210000000000003	S_U	2.0	n/a	n/a	n/a	n/a	Sem/Sem_run-02/stereo_1SU43A0.wav	n/a	0	n/a
59.8529	3.8539999999999996	S_C	1.0	1.0	0.737	1.0	0.494	Sem/Sem_run-02/ContS02.wav	1.0	1	0.737
63.7217	4.37	S_L	1.0	n/a	n/a	1.0	1.903	Sem/Sem_run-02/stereo_1SL19A0.wav	1.0	1	1.653
68.0927	3.862	S_L	1.0	n/a	n/a	1.0	1.617	Sem/Sem_run-02/stereo_1SL18A0.wav	1.0	1	1.367
71.9622	4.462	S_C	1.0	n/a	n/a	1.0	0.13699999999999998	Sem/Sem_run-02/ContS22.wav	1.0	1	0.887
76.4321	3.406	S_L	1.0	n/a	n/a	1.0	1.284	Sem/Sem_run-02/stereo_1SL21A0.wav	1.0	1	1.034
79.8515	3.355	S_U	2.0	n/a	n/a	2.0	1.6219999999999999	Sem/Sem_run-02/stereo_1SU36A0.wav	2.0	1	1.372
83.2206	4.324	S_C	1.0	1.0	0.7490000000000001	1.0	0.578	Sem/Sem_run-02/ContS04.wav	1.0	1	0.7490000000000001
87.5571	4.253	S_L	1.0	n/a	n/a	1.0	1.715	Sem/Sem_run-02/stereo_1SL24A0.wav	1.0	1	1.465
91.8112	3.839	S_L	1.0	n/a	n/a	1.0	1.861	Sem/Sem_run-02/stereo_2SL70A0.wav	1.0	1	1.611
95.664	4.395	S_C	1.0	n/a	n/a	1.0	0.11900000000000001	Sem/Sem_run-02/ContS14.wav	1.0	1	0.869
100.0673	3.8739999999999997	S_H	1.0	n/a	n/a	1.0	1.325	Sem/Sem_run-02/stereo_1SH09A0.wav	1.0	1	1.075
103.9534	3.75	S_U	2.0	n/a	n/a	1.0	1.7209999999999999	Sem/Sem_run-02/stereo_1SU32A0.wav	1.0	0	1.471
107.7063	3.641	S_C	1.0	n/a	n/a	1.0	0.031	Sem/Sem_run-02/ContS34.wav	1.0	1	0.781
111.359	3.338	S_U	2.0	n/a	n/a	2.0	1.649	Sem/Sem_run-02/stereo_1SU31A0.wav	2.0	1	1.399
114.7114	3.45	S_L	1.0	n/a	n/a	1.0	1.3780000000000001	Sem/Sem_run-02/stereo_2SL68A0.wav	1.0	1	1.128
118.164	3.8510000000000004	S_H	1.0	n/a	n/a	1.0	1.122	Sem/Sem_run-02/stereo_1SH14A0.wav	1.0	1	0.8720000000000001
122.0178	3.459	S_H	1.0	n/a	n/a	1.0	1.222	Sem/Sem_run-02/stereo_1SH01A0.wav	1.0	1	0.972
125.4869	3.512	S_C	1.0	n/a	n/a	1.0	0.21600000000000003	Sem/Sem_run-02/ContS16.wav	1.0	1	0.9660000000000001
129.0062	3.489	S_H	1.0	n/a	n/a	1.0	1.281	Sem/Sem_run-02/stereo_1SH12A0.wav	1.0	1	1.031
132.5087	3.8489999999999998	S_U	2.0	n/a	n/a	2.0	1.946	Sem/Sem_run-02/stereo_2SU86A0.wav	2.0	1	1.696
136.3616	3.46	S_L	1.0	n/a	n/a	1.0	1.681	Sem/Sem_run-02/stereo_1SL28A0.wav	1.0	1	1.431
139.8308	4.53	S_C	1.0	n/a	n/a	1.0	0.17600000000000002	Sem/Sem_run-02/ContS32.wav	1.0	1	0.926
144.3674	4.351	S_H	1.0	n/a	n/a	1.0	2.628	Sem/Sem_run-02/stereo_2SH52A0.wav	1.0	1	2.378
148.7216	3.48	S_H	1.0	n/a	n/a	2.0	1.673	Sem/Sem_run-02/stereo_2SH47A0.wav	2.0	0	1.423
152.2075	3.3	S_H	1.0	n/a	n/a	1.0	1.5759999999999998	Sem/Sem_run-02/stereo_2SH53A0.wav	1.0	1	1.3259999999999998
155.5099	3.847	S_U	2.0	n/a	n/a	2.0	1.72	Sem/Sem_run-02/stereo_1SU39A0.wav	2.0	1	1.47
159.3627	3.923	S_C	1.0	n/a	n/a	1.0	0.16	Sem/Sem_run-02/ContS10.wav	1.0	1	0.91
163.2989	3.7510000000000003	S_U	2.0	n/a	n/a	2.0	1.3530000000000002	Sem/Sem_run-02/stereo_2SU80A0.wav	2.0	1	1.1030000000000002
167.0527	4.2	S_L	1.0	n/a	n/a	1.0	1.585	Sem/Sem_run-02/stereo_2SL66A0.wav	1.0	1	1.335
171.2559	3.99	S_C	1.0	n/a	n/a	2.0	2.069	Sem/Sem_run-02/ContS20.wav	2.0	0	2.819
175.2588	4.041	S_C	1.0	1.0	0.7440000000000001	1.0	0.812	Sem/Sem_run-02/ContS28.wav	1.0	1	0.7440000000000001
179.3117	4.2	S_U	2.0	n/a	n/a	2.0	2.265	Sem/Sem_run-02/stereo_2SU89A0.wav	2.0	1	2.015
183.5149	4.368	S_H	1.0	n/a	n/a	1.0	1.4909999999999999	Sem/Sem_run-02/stereo_2SH46A0.wav	1.0	1	1.241
