onset	duration	trial_type	correct	window1_response	window1_RT	window2_response	window2_RT	stim_file	calculated_response	calculated_accuracy	calculated_RT
1.084	3.5	P_R	1.0	n/a	n/a	1.0	1.402	Phon/Phon_run-02/stereo_PR20.wav	1.0	1	1.152
4.587	4.235	P_O	1.0	n/a	n/a	1.0	1.5030000000000001	Phon/Phon_run-02/PC034.wav	1.0	1	1.2530000000000001
8.824	3.375	P_R	1.0	n/a	n/a	1.0	1.345	Phon/Phon_run-02/stereo_PR13.wav	1.0	1	1.095
12.21	3.474	P_C	1.0	1.0	0.41200000000000003	1.0	0.583	Phon/Phon_run-02/ContS12.wav	1.0	1	0.412
15.696	3.875	P_U	2.0	n/a	n/a	2.0	1.6580000000000001	Phon/Phon_run-02/PM025.wav	2.0	1	1.4080000000000001
19.582	3.726	P_R	1.0	n/a	n/a	1.0	1.59	Phon/Phon_run-02/stereo_PR22.wav	1.0	1	1.34
23.31900000000001	3.451	P_O	1.0	n/a	n/a	1.0	1.51	Phon/Phon_run-02/PC014.wav	1.0	1	1.26
26.771	3.779	P_C	1.0	1.0	0.39299999999999996	1.0	0.551	Phon/Phon_run-02/ContS02.wav	1.0	1	0.393
30.558000000000003	3.821	P_U	2.0	n/a	n/a	2.0	1.357	Phon/Phon_run-02/stereo_PU18.wav	2.0	1	1.107
34.394	3.49	P_U	2.0	n/a	n/a	2.0	1.585	Phon/Phon_run-02/stereo_PU12.wav	2.0	1	1.335
37.897	4.38	P_C	1.0	1.0	0.441	1.0	0.659	Phon/Phon_run-02/ContS32.wav	1.0	1	0.441
42.284	4.0969999999999995	P_R	1.0	n/a	n/a	1.0	1.369	Phon/Phon_run-02/stereo_PR16.wav	1.0	1	1.119
46.387	3.5	P_O	1.0	n/a	n/a	1.0	1.811	Phon/Phon_run-02/PC022.wav	1.0	1	1.561
49.89	4.0760000000000005	P_R	1.0	n/a	n/a	1.0	1.401	Phon/Phon_run-02/stereo_PR08.wav	1.0	1	1.151
53.977	3.5	P_O	1.0	n/a	n/a	1.0	1.587	Phon/Phon_run-02/PC028.wav	1.0	1	1.337
57.48	3.5	P_U	2.0	n/a	n/a	2.0	1.544	Phon/Phon_run-02/stereo_PU27.wav	2.0	1	1.294
60.982	3.819	P_C	1.0	1.0	0.415	1.0	0.504	Phon/Phon_run-02/ContS06.wav	1.0	1	0.415
64.80199999999999	4.25	P_O	1.0	n/a	n/a	1.0	1.367	Phon/Phon_run-02/PC031.wav	1.0	1	1.117
69.056	3.662	P_C	1.0	1.0	0.521	1.0	0.848	Phon/Phon_run-02/ContS36.wav	1.0	1	0.521
72.725	3.823	P_O	1.0	n/a	n/a	1.0	1.413	Phon/Phon_run-02/PC023.wav	1.0	1	1.163
76.562	4.323	P_C	1.0	1.0	0.46299999999999997	1.0	0.7290000000000001	Phon/Phon_run-02/ContS24.wav	1.0	1	0.463
80.898	3.865	P_U	2.0	n/a	n/a	2.0	1.344	Phon/Phon_run-02/PM004.wav	2.0	1	1.094
84.76799999999999	3.875	P_O	1.0	n/a	n/a	1.0	1.784	Phon/Phon_run-02/PC007.wav	1.0	1	1.534
88.655	4.25	P_U	2.0	n/a	n/a	2.0	1.889	Phon/Phon_run-02/PM011.wav	2.0	1	1.639
92.90799999999999	4.362	P_C	1.0	1.0	0.46	1.0	0.818	Phon/Phon_run-02/ContS30.wav	1.0	1	0.46
97.27799999999999	3.875	P_O	1.0	n/a	n/a	1.0	1.423	Phon/Phon_run-02/PC030.wav	1.0	1	1.173
101.165	3.3360000000000003	P_R	1.0	n/a	n/a	1.0	1.8940000000000001	Phon/Phon_run-02/stereo_PR05.wav	1.0	1	1.6440000000000001
104.501	4.113	P_U	2.0	n/a	n/a	2.0	1.838	Phon/Phon_run-02/stereo_PU01.wav	2.0	1	1.588
108.62100000000001	4.1739999999999995	P_U	2.0	n/a	n/a	2.0	1.504	Phon/Phon_run-02/PM029.wav	2.0	1	1.254
112.80799999999999	3.4539999999999997	P_C	1.0	1.0	0.5579999999999999	1.0	0.743	Phon/Phon_run-02/ContS08.wav	1.0	1	0.5579999999999999
116.277	3.446	P_R	1.0	n/a	n/a	1.0	1.455	Phon/Phon_run-02/stereo_PR30.wav	1.0	1	1.205
119.73	3.85	P_R	1.0	n/a	n/a	1.0	1.25	Phon/Phon_run-02/stereo_PR07.wav	1.0	1	1.0
123.583	3.438	P_U	2.0	n/a	n/a	2.0	1.625	Phon/Phon_run-02/stereo_PU02.wav	2.0	1	1.375
127.036	3.915	P_C	1.0	1.0	0.701	1.0	0.711	Phon/Phon_run-02/ContS20.wav	1.0	1	0.701
130.955	3.487	P_U	2.0	n/a	n/a	1.0	1.287	Phon/Phon_run-02/PM021.wav	1.0	0	1.037
134.442	3.965	P_C	1.0	1.0	0.515	1.0	0.69	Phon/Phon_run-02/ContS26.wav	1.0	1	0.515
138.412	3.792	P_R	1.0	n/a	n/a	1.0	1.392	Phon/Phon_run-02/stereo_PR31.wav	1.0	1	1.142
142.215	4.135	P_O	1.0	n/a	n/a	1.0	1.36	Phon/Phon_run-02/PC024.wav	1.0	1	1.11
146.351	3.875	P_U	2.0	n/a	n/a	2.0	1.579	Phon/Phon_run-02/PM010.wav	2.0	1	1.329
150.238	3.875	P_O	1.0	n/a	n/a	1.0	1.817	Phon/Phon_run-02/PC015.wav	1.0	1	1.567
154.124	4.245	P_C	1.0	1.0	0.51	1.0	0.693	Phon/Phon_run-02/ContS14.wav	1.0	1	0.51
158.378	3.854	P_R	1.0	n/a	n/a	1.0	1.656	Phon/Phon_run-02/stereo_PR14.wav	1.0	1	1.406
162.247	4.239	P_O	1.0	n/a	n/a	1.0	2.157	Phon/Phon_run-02/PC008.wav	1.0	1	1.907
166.50099999999995	4.25	P_U	2.0	n/a	n/a	2.0	1.9069999999999998	Phon/Phon_run-02/stereo_PU11.wav	2.0	1	1.6569999999999998
170.75400000000005	3.523	P_C	1.0	1.0	0.655	1.0	0.792	Phon/Phon_run-02/ContS18.wav	1.0	1	0.655
174.29	3.429	P_O	1.0	n/a	n/a	1.0	2.022	Phon/Phon_run-02/PC006.wav	1.0	1	1.7719999999999998
177.727	4.18	P_R	1.0	n/a	n/a	1.0	2.721	Phon/Phon_run-02/stereo_PR32.wav	1.0	1	2.471
181.91299999999998	4.104	P_R	1.0	n/a	n/a	1.0	1.6880000000000002	Phon/Phon_run-02/stereo_PR24.wav	1.0	1	1.4380000000000002
