onset	duration	trial_type	correct	window1_response	window1_RT	window2_response	window2_RT	stim_file	calculated_response	calculated_accuracy	calculated_RT
1.085	4.2010000000000005	S_U	2.0	n/a	n/a	2.0	1.194	Sem/Sem_run-02/stereo_1SU33A0.wav	2.0	1	0.944
5.287999999999999	3.486	S_U	2.0	n/a	n/a	2.0	1.159	Sem/Sem_run-02/stereo_2SU85A0.wav	2.0	1	0.909
8.774	3.8539999999999996	S_H	1.0	n/a	n/a	1.0	0.494	Sem/Sem_run-02/stereo_2SH50A0.wav	1.0	1	0.244
12.644	3.454	S_C	1.0	n/a	n/a	1.0	0.156	Sem/Sem_run-02/ContS08.wav	1.0	1	0.906
16.113	4.33	S_H	1.0	n/a	n/a	1.0	1.002	Sem/Sem_run-02/stereo_1SH10A0.wav	1.0	1	0.752
20.45	3.872	S_L	1.0	n/a	n/a	1.0	0.401	Sem/Sem_run-02/stereo_2SL61A0.wav	1.0	1	0.15100000000000002
24.337	3.885	S_L	1.0	n/a	n/a	1.0	0.475	Sem/Sem_run-02/stereo_1SL23A0.wav	1.0	1	0.225
28.22300000000001	4.2	S_U	2.0	n/a	n/a	2.0	1.092	Sem/Sem_run-02/stereo_1SU42A0.wav	2.0	1	0.8420000000000001
32.426	3.321	S_L	1.0	n/a	n/a	1.0	0.331	Sem/Sem_run-02/stereo_1SL16A0.wav	1.0	1	0.08100000000000003
35.762	3.59	S_C	1.0	1.0	0.73	n/a	n/a	Sem/Sem_run-02/ContS26.wav	1.0	1	0.73
39.365	4.4	S_H	1.0	n/a	n/a	1.0	1.202	Sem/Sem_run-02/stereo_2SH60A0.wav	1.0	1	0.952
43.769	4.311	S_L	1.0	n/a	n/a	2.0	1.6869999999999998	Sem/Sem_run-02/stereo_2SL75A0.wav	2.0	0	1.4369999999999998
48.089	3.912	S_H	1.0	n/a	n/a	1.0	1.347	Sem/Sem_run-02/stereo_2SH59A0.wav	1.0	1	1.097
52.00899999999999	4.4	S_U	2.0	n/a	n/a	2.0	0.966	Sem/Sem_run-02/stereo_2SU84A0.wav	2.0	1	0.716
56.412	3.4210000000000003	S_U	2.0	n/a	n/a	2.0	1.8259999999999998	Sem/Sem_run-02/stereo_1SU43A0.wav	2.0	1	1.5759999999999998
59.849	3.8539999999999996	S_C	1.0	1.0	0.701	1.0	0.529	Sem/Sem_run-02/ContS02.wav	1.0	1	0.701
63.718	4.37	S_L	1.0	n/a	n/a	1.0	0.43799999999999994	Sem/Sem_run-02/stereo_1SL19A0.wav	1.0	1	0.188
68.089	3.862	S_L	1.0	n/a	n/a	1.0	1.321	Sem/Sem_run-02/stereo_1SL18A0.wav	1.0	1	1.071
71.958	4.462	S_C	1.0	1.0	0.731	n/a	n/a	Sem/Sem_run-02/ContS22.wav	1.0	1	0.731
76.429	3.406	S_L	1.0	n/a	n/a	1.0	1.2690000000000001	Sem/Sem_run-02/stereo_1SL21A0.wav	1.0	1	1.019
79.848	3.355	S_U	2.0	n/a	n/a	2.0	0.879	Sem/Sem_run-02/stereo_1SU36A0.wav	2.0	1	0.629
83.21700000000001	4.324	S_C	1.0	1.0	0.721	n/a	n/a	Sem/Sem_run-02/ContS04.wav	1.0	1	0.721
87.554	4.253	S_L	1.0	n/a	n/a	1.0	1.453	Sem/Sem_run-02/stereo_1SL24A0.wav	1.0	1	1.203
91.808	3.839	S_L	1.0	n/a	n/a	1.0	1.3119999999999998	Sem/Sem_run-02/stereo_2SL70A0.wav	1.0	1	1.0619999999999998
95.661	4.395	S_C	1.0	n/a	n/a	1.0	0.42	Sem/Sem_run-02/ContS14.wav	1.0	1	1.17
100.064	3.8739999999999997	S_H	1.0	n/a	n/a	1.0	1.702	Sem/Sem_run-02/stereo_1SH09A0.wav	1.0	1	1.452
103.951	3.75	S_U	2.0	n/a	n/a	2.0	1.237	Sem/Sem_run-02/stereo_1SU32A0.wav	2.0	1	0.987
107.704	3.641	S_C	1.0	1.0	0.7120000000000001	n/a	n/a	Sem/Sem_run-02/ContS34.wav	1.0	1	0.7120000000000001
111.357	3.338	S_U	2.0	n/a	n/a	2.0	1.493	Sem/Sem_run-02/stereo_1SU31A0.wav	2.0	1	1.243
114.709	3.45	S_L	1.0	n/a	n/a	1.0	1.256	Sem/Sem_run-02/stereo_2SL68A0.wav	1.0	1	1.006
118.162	3.8510000000000004	S_H	1.0	n/a	n/a	1.0	0.82	Sem/Sem_run-02/stereo_1SH14A0.wav	1.0	1	0.57
122.015	3.459	S_H	1.0	n/a	n/a	1.0	1.177	Sem/Sem_run-02/stereo_1SH01A0.wav	1.0	1	0.927
125.485	3.512	S_C	1.0	1.0	0.638	n/a	n/a	Sem/Sem_run-02/ContS16.wav	1.0	1	0.638
129.004	3.489	S_H	1.0	n/a	n/a	1.0	0.917	Sem/Sem_run-02/stereo_1SH12A0.wav	1.0	1	0.667
132.507	3.8489999999999998	S_U	2.0	n/a	n/a	2.0	2.102	Sem/Sem_run-02/stereo_2SU86A0.wav	2.0	1	1.8519999999999999
136.36	3.46	S_L	1.0	n/a	n/a	1.0	1.016	Sem/Sem_run-02/stereo_1SL28A0.wav	1.0	1	0.7659999999999999
139.83	4.53	S_C	1.0	n/a	n/a	1.0	0.34600000000000003	Sem/Sem_run-02/ContS32.wav	1.0	1	1.096
144.36700000000005	4.351	S_H	1.0	n/a	n/a	1.0	1.4	Sem/Sem_run-02/stereo_2SH52A0.wav	1.0	1	1.15
148.72	3.48	S_H	1.0	n/a	n/a	1.0	1.347	Sem/Sem_run-02/stereo_2SH47A0.wav	1.0	1	1.097
152.20600000000005	3.3	S_H	1.0	n/a	n/a	1.0	1.584	Sem/Sem_run-02/stereo_2SH53A0.wav	1.0	1	1.334
155.509	3.847	S_U	2.0	n/a	n/a	1.0	0.565	Sem/Sem_run-02/stereo_1SU39A0.wav	1.0	0	0.31499999999999995
159.362	3.923	S_C	1.0	n/a	n/a	1.0	0.552	Sem/Sem_run-02/ContS10.wav	1.0	1	1.3019999999999998
163.299	3.7510000000000003	S_U	2.0	n/a	n/a	2.0	1.123	Sem/Sem_run-02/stereo_2SU80A0.wav	2.0	1	0.873
167.05200000000005	4.2	S_L	1.0	n/a	n/a	2.0	2.6	Sem/Sem_run-02/stereo_2SL66A0.wav	2.0	0	2.35
171.255	3.99	S_C	1.0	1.0	0.631	n/a	n/a	Sem/Sem_run-02/ContS20.wav	1.0	1	0.631
175.25799999999995	4.041	S_C	1.0	n/a	n/a	1.0	0.349	Sem/Sem_run-02/ContS28.wav	1.0	1	1.099
179.312	4.2	S_U	2.0	n/a	n/a	2.0	1.861	Sem/Sem_run-02/stereo_2SU89A0.wav	2.0	1	1.611
183.515	4.368	S_H	1.0	n/a	n/a	1.0	1.285	Sem/Sem_run-02/stereo_2SH46A0.wav	1.0	1	1.035
