onset	duration	trial_type	correct	window1_response	window1_RT	window2_response	window2_RT	stim_file	calculated_response	calculated_accuracy	calculated_RT
1.0964	7.034	SP_W	1.0	n/a	n/a	1.0	4.1	Plaus/Plaus_run-01/stereo_PW85.wav	1.0	1	1.9529999999999994
8.1359	5.641	SP_I	2.0	n/a	n/a	2.0	2.526	Plaus/Plaus_run-01/stereo_PI11.wav	2.0	1	1.6059999999999997
13.79	6.77	SP_C	1.0	n/a	n/a	1.0	3.678	Plaus/Plaus_run-01/CoM08b.wav	1.0	1	4.428
20.5628	7.327000000000001	SP_W	1.0	n/a	n/a	1.0	3.701	Plaus/Plaus_run-01/stereo_PW72.wav	1.0	1	1.721
27.9014	6.145	SP_C	1.0	n/a	n/a	1.0	3.4160000000000004	Plaus/Plaus_run-01/CoM05d.wav	1.0	1	4.166
34.0559	5.181	SP_I	2.0	n/a	n/a	2.0	2.866	Plaus/Plaus_run-01/stereo_PI65.wav	2.0	1	1.924
39.243	5.092	SP_S	1.0	n/a	n/a	1.0	3.437	Plaus/Plaus_run-01/stereo_PC13.wav	1.0	1	2.3739999999999997
44.3468	7.355	SP_C	1.0	n/a	n/a	1.0	4.135	Plaus/Plaus_run-01/CoM06l.wav	1.0	1	4.885
51.7032	7.47	SP_I	2.0	n/a	n/a	2.0	3.964	Plaus/Plaus_run-01/stereo_PI90.wav	2.0	1	1.7930000000000001
59.1764	7.399	SP_S	1.0	n/a	n/a	1.0	4.238	Plaus/Plaus_run-01/stereo_PC35.wav	1.0	1	1.9710000000000005
66.5818	5.685	SP_S	1.0	n/a	n/a	1.0	3.707	Plaus/Plaus_run-01/stereo_PC47.wav	1.0	1	2.6979999999999995
72.2704	5.669	SP_W	1.0	n/a	n/a	2.0	3.1010000000000004	Plaus/Plaus_run-01/stereo_PW19.wav	2.0	0	2.0950000000000006
77.9423	7.9	SP_C	1.0	n/a	n/a	1.0	4.9830000000000005	Plaus/Plaus_run-01/CoM03l.wav	1.0	1	5.7330000000000005
85.8483	5.145	SP_I	2.0	n/a	n/a	2.0	2.8160000000000003	Plaus/Plaus_run-01/stereo_PI09.wav	2.0	1	1.8080000000000005
91.0021	6.9170000000000025	SP_W	1.0	n/a	n/a	1.0	4.17	Plaus/Plaus_run-01/stereo_PW30.wav	1.0	1	2.05
97.9243	5.738	SP_S	1.0	n/a	n/a	2.0	2.7030000000000003	Plaus/Plaus_run-01/stereo_PC14.wav	2.0	0	1.5320000000000003
103.6662	6.276	SP_W	1.0	1.0	0.09699999999999999	1.0	3.58	Plaus/Plaus_run-01/stereo_PW50.wav	1.0	1	2.758
109.954	5.49	SP_C	1.0	n/a	n/a	1.0	3.2680000000000002	Plaus/Plaus_run-01/CoM03d.wav	1.0	1	4.018
115.458	5.7	SP_I	2.0	n/a	n/a	2.0	2.576	Plaus/Plaus_run-01/stereo_PI67.wav	2.0	1	1.685
121.1625	7.237	SP_S	1.0	n/a	n/a	1.0	5.405	Plaus/Plaus_run-01/stereo_PC68.wav	1.0	1	3.439
128.4022	6.49	SP_C	1.0	n/a	n/a	1.0	3.531	Plaus/Plaus_run-01/CoM03b.wav	1.0	1	4.281000000000001
134.9065	6.25	SP_W	1.0	n/a	n/a	2.0	3.343	Plaus/Plaus_run-01/stereo_PW61.wav	2.0	0	2.363
141.161	6.952999999999999	SP_I	2.0	1.0	0.145	2.0	3.609	Plaus/Plaus_run-01/stereo_PI32.wav	2.0	1	1.444
148.1173	7.085	SP_C	1.0	n/a	n/a	1.0	0.885	Plaus/Plaus_run-01/CoM02e.wav	1.0	1	1.635
155.2068	6.3610000000000015	SP_S	1.0	n/a	n/a	1.0	4.88	Plaus/Plaus_run-01/stereo_PC24.wav	1.0	1	2.622
161.5781	5.1110000000000015	SP_W	1.0	n/a	n/a	1.0	3.3960000000000004	Plaus/Plaus_run-01/stereo_PW53.wav	1.0	1	2.3820000000000006
166.6985	6.2860000000000005	SP_I	2.0	n/a	n/a	2.0	3.758	Plaus/Plaus_run-01/stereo_PI42.wav	2.0	1	1.5620000000000003
172.9876	6.577000000000001	SP_S	1.0	n/a	n/a	1.0	3.427	Plaus/Plaus_run-01/stereo_PC57.wav	1.0	1	2.232
179.5757	5.273	SP_W	1.0	n/a	n/a	1.0	3.645	Plaus/Plaus_run-01/stereo_PW18.wav	1.0	1	2.4779999999999998
184.8629	5.77	SP_C	1.0	n/a	n/a	1.0	3.648	Plaus/Plaus_run-01/CoM09b.wav	1.0	1	4.398
190.6348	6.731	SP_S	1.0	n/a	n/a	1.0	3.738	Plaus/Plaus_run-01/stereo_PC26.wav	1.0	1	1.638
197.3731	7.212999999999999	SP_I	2.0	n/a	n/a	2.0	3.904	Plaus/Plaus_run-01/stereo_PI33.wav	2.0	1	1.9209999999999998
204.595	5.181	SP_S	1.0	n/a	n/a	1.0	3.623	Plaus/Plaus_run-01/stereo_PC01.wav	1.0	1	2.6820000000000004
209.7821	6.238	SP_S	1.0	n/a	n/a	1.0	3.9760000000000004	Plaus/Plaus_run-01/stereo_PC36.wav	1.0	1	1.9299999999999997
216.0211	7.73	SP_C	1.0	n/a	n/a	1.0	3.906	Plaus/Plaus_run-01/CoM10e.wav	1.0	1	4.656000000000001
223.7601	6.843	SP_I	2.0	n/a	n/a	2.0	4.21	Plaus/Plaus_run-01/stereo_PI45.wav	2.0	1	2.083
230.615	6.101	SP_W	1.0	n/a	n/a	n/a	n/a	Plaus/Plaus_run-01/stereo_PW28.wav	n/a	0	n/a
236.7206	7.419	SP_W	1.0	n/a	n/a	1.0	3.5260000000000002	Plaus/Plaus_run-01/stereo_PW86.wav	1.0	1	1.4900000000000002
244.1438	6.54	SP_C	1.0	n/a	n/a	1.0	4.202	Plaus/Plaus_run-01/CoM05e.wav	1.0	1	4.952
250.6981	6.247000000000001	SP_I	2.0	n/a	n/a	2.0	3.011	Plaus/Plaus_run-01/stereo_PI12.wav	2.0	1	2.14
