onset	duration	trial_type	correct	window1_response	window1_RT	window2_response	window2_RT	stim_file	calculated_response	calculated_accuracy	calculated_RT
1.084	7.034	SP_W	1.0	n/a	n/a	1.0	4.085	Plaus/Plaus_run-01/stereo_PW85.wav	1.0	1	1.9379999999999997
8.123	5.641	SP_I	2.0	n/a	n/a	2.0	2.448	Plaus/Plaus_run-01/stereo_PI11.wav	2.0	1	1.5279999999999998
13.777	6.77	SP_C	1.0	n/a	n/a	1.0	3.138	Plaus/Plaus_run-01/CoM08b.wav	1.0	1	3.888
20.549	7.327000000000001	SP_W	1.0	n/a	n/a	1.0	3.8160000000000003	Plaus/Plaus_run-01/stereo_PW72.wav	1.0	1	1.8359999999999999
27.888	6.145	SP_C	1.0	n/a	n/a	1.0	3.923	Plaus/Plaus_run-01/CoM05d.wav	1.0	1	4.673
34.043	5.181	SP_I	2.0	n/a	n/a	2.0	3.1	Plaus/Plaus_run-01/stereo_PI65.wav	2.0	1	2.158
39.23	5.092	SP_S	1.0	n/a	n/a	1.0	3.435	Plaus/Plaus_run-01/stereo_PC13.wav	1.0	1	2.372
44.334	7.355	SP_C	1.0	n/a	n/a	1.0	4.973	Plaus/Plaus_run-01/CoM06l.wav	1.0	1	5.723
51.69	7.47	SP_I	2.0	n/a	n/a	1.0	5.08	Plaus/Plaus_run-01/stereo_PI90.wav	1.0	0	2.9090000000000003
59.162	7.399	SP_S	1.0	n/a	n/a	1.0	3.498	Plaus/Plaus_run-01/stereo_PC35.wav	1.0	1	1.2310000000000003
66.568	5.685	SP_S	1.0	n/a	n/a	1.0	2.889	Plaus/Plaus_run-01/stereo_PC47.wav	1.0	1	1.8799999999999997
72.256	5.669	SP_W	1.0	n/a	n/a	1.0	2.6319999999999997	Plaus/Plaus_run-01/stereo_PW19.wav	1.0	1	1.6260000000000001
77.92699999999998	7.9	SP_C	1.0	n/a	n/a	1.0	2.883	Plaus/Plaus_run-01/CoM03l.wav	1.0	1	3.633
85.833	5.145	SP_I	2.0	n/a	n/a	n/a	n/a	Plaus/Plaus_run-01/stereo_PI09.wav	2.0	1	4.443
90.987	6.9170000000000025	SP_W	1.0	n/a	n/a	2.0	0.306	Plaus/Plaus_run-01/stereo_PW30.wav	n/a	0	n/a
97.909	5.738	SP_S	1.0	n/a	n/a	1.0	2.38	Plaus/Plaus_run-01/stereo_PC14.wav	1.0	1	1.2089999999999999
103.647	6.276	SP_W	1.0	n/a	n/a	2.0	3.525	Plaus/Plaus_run-01/stereo_PW50.wav	2.0	0	2.703
109.935	5.49	SP_C	1.0	n/a	n/a	1.0	3.752	Plaus/Plaus_run-01/CoM03d.wav	1.0	1	4.502
115.439	5.7	SP_I	2.0	n/a	n/a	2.0	4.476	Plaus/Plaus_run-01/stereo_PI67.wav	2.0	1	3.585
121.143	7.237	SP_S	1.0	n/a	n/a	1.0	3.6189999999999998	Plaus/Plaus_run-01/stereo_PC68.wav	1.0	1	1.653
128.382	6.49	SP_C	1.0	n/a	n/a	1.0	2.8689999999999998	Plaus/Plaus_run-01/CoM03b.wav	1.0	1	3.619
134.887	6.25	SP_W	1.0	n/a	n/a	2.0	2.642	Plaus/Plaus_run-01/stereo_PW61.wav	2.0	0	1.662
141.142	6.952999999999999	SP_I	2.0	n/a	n/a	2.0	3.609	Plaus/Plaus_run-01/stereo_PI32.wav	2.0	1	1.444
148.097	7.085	SP_C	1.0	n/a	n/a	1.0	1.412	Plaus/Plaus_run-01/CoM02e.wav	1.0	1	2.162
155.186	6.3610000000000015	SP_S	1.0	n/a	n/a	1.0	3.801	Plaus/Plaus_run-01/stereo_PC24.wav	1.0	1	1.5430000000000001
161.558	5.1110000000000015	SP_W	1.0	n/a	n/a	1.0	2.145	Plaus/Plaus_run-01/stereo_PW53.wav	1.0	1	1.1310000000000002
166.678	6.2860000000000005	SP_I	2.0	n/a	n/a	2.0	3.505	Plaus/Plaus_run-01/stereo_PI42.wav	2.0	1	1.3090000000000002
172.967	6.577000000000001	SP_S	1.0	n/a	n/a	2.0	3.208	Plaus/Plaus_run-01/stereo_PC57.wav	2.0	0	2.013
179.555	5.273	SP_W	1.0	1.0	0.415	1.0	3.68	Plaus/Plaus_run-01/stereo_PW18.wav	1.0	1	2.513
184.842	5.77	SP_C	1.0	n/a	n/a	1.0	2.7889999999999997	Plaus/Plaus_run-01/CoM09b.wav	1.0	1	3.539
190.614	6.731	SP_S	1.0	n/a	n/a	1.0	3.7460000000000004	Plaus/Plaus_run-01/stereo_PC26.wav	1.0	1	1.646
197.352	7.212999999999999	SP_I	2.0	n/a	n/a	2.0	3.659	Plaus/Plaus_run-01/stereo_PI33.wav	2.0	1	1.6759999999999997
204.574	5.181	SP_S	1.0	n/a	n/a	1.0	3.091	Plaus/Plaus_run-01/stereo_PC01.wav	1.0	1	2.1500000000000004
209.762	6.238	SP_S	1.0	n/a	n/a	2.0	4.933	Plaus/Plaus_run-01/stereo_PC36.wav	2.0	0	2.8869999999999996
216.0	7.73	SP_C	1.0	1.0	0.64	1.0	0.08199999999999999	Plaus/Plaus_run-01/CoM10e.wav	1.0	1	0.64
223.739	6.843	SP_I	2.0	n/a	n/a	2.0	3.9	Plaus/Plaus_run-01/stereo_PI45.wav	2.0	1	1.7730000000000001
230.594	6.101	SP_W	1.0	n/a	n/a	1.0	3.785	Plaus/Plaus_run-01/stereo_PW28.wav	1.0	1	1.8529999999999998
236.699	7.419	SP_W	1.0	n/a	n/a	1.0	4.546	Plaus/Plaus_run-01/stereo_PW86.wav	1.0	1	2.5100000000000007
244.121	6.54	SP_C	1.0	n/a	n/a	1.0	4.062	Plaus/Plaus_run-01/CoM05e.wav	1.0	1	4.812
250.677	6.247000000000001	SP_I	2.0	n/a	n/a	2.0	2.52	Plaus/Plaus_run-01/stereo_PI12.wav	2.0	1	1.649
