onset	duration	trial_type	correct	window1_response	window1_RT	window2_response	window2_RT	stim_file	calculated_response	calculated_accuracy	calculated_RT
1.0934	7.632999999999999	G_P	2.0	n/a	n/a	2.0	3.7110000000000003	Gram/Gram_run-02/stereo_1MP45U4.wav	2.0	1	1.5799999999999996
8.7323	7.315	G_F	2.0	n/a	n/a	2.0	4.143	Gram/Gram_run-02/stereo_1MF20U4.wav	2.0	1	3.4329999999999994
16.0543	6.2829999999999995	G_P	2.0	n/a	n/a	2.0	3.3480000000000003	Gram/Gram_run-02/stereo_1MP34U2.wav	2.0	1	2.2560000000000002
22.3421	6.195	G_C	1.0	n/a	n/a	1.0	0.22699999999999998	Gram/Gram_run-02/CoM06d.wav	1.0	1	0.977
28.5465	6.221	G_G	1.0	n/a	n/a	1.0	3.9160000000000004	Gram/Gram_run-02/stereo_1MF02G1.wav	1.0	1	1.876
34.769	5.801	G_F	2.0	n/a	n/a	n/a	n/a	Gram/Gram_run-02/stereo_2MF64U3.wav	n/a	0	n/a
40.5743	6.78	G_C	1.0	n/a	n/a	1.0	0.094	Gram/Gram_run-02/CoM07l.wav	1.0	1	0.844
47.3625	6.084	G_F	2.0	n/a	n/a	2.0	3.435	Gram/Gram_run-02/stereo_2MF56U2.wav	2.0	1	4.1850000000000005
53.4512	7.5470000000000015	G_F	2.0	n/a	n/a	2.0	4.4319999999999995	Gram/Gram_run-02/stereo_1MF21U4.wav	2.0	1	3.681
61.0065	6.482	G_G	1.0	n/a	n/a	1.0	4.2139999999999995	Gram/Gram_run-02/stereo_1MF24G4.wav	1.0	1	1.8530000000000006
67.4946	6.7810000000000015	G_P	2.0	n/a	n/a	2.0	4.422	Gram/Gram_run-02/stereo_2MP76U1.wav	2.0	1	2.16
74.2828	6.643	G_P	2.0	n/a	n/a	2.0	3.3939999999999997	Gram/Gram_run-02/stereo_2MP80U2.wav	2.0	1	2.438
80.9376	7.69	G_C	1.0	n/a	n/a	1.0	0.5539999999999999	Gram/Gram_run-02/CoM06e.wav	1.0	1	1.3039999999999998
88.639	6.352	G_F	2.0	n/a	n/a	2.0	3.713	Gram/Gram_run-02/stereo_2MF63U3.wav	2.0	1	4.463
94.9947	5.801	G_G	1.0	n/a	n/a	2.0	4.027	Gram/Gram_run-02/stereo_1MF18G3.wav	2.0	0	2.644
100.8001	7.1129999999999995	G_P	2.0	n/a	n/a	2.0	4.3	Gram/Gram_run-02/stereo_1MP44U4.wav	2.0	1	1.9429999999999996
107.9218	6.78	G_C	1.0	n/a	n/a	1.0	0.512	Gram/Gram_run-02/CoM05b.wav	1.0	1	1.262
114.7101	6.7360000000000015	G_F	2.0	n/a	n/a	2.0	2.842	Gram/Gram_run-02/stereo_2MF58U2.wav	2.0	1	3.592
121.4494	6.0889999999999995	G_P	2.0	n/a	n/a	2.0	3.4339999999999997	Gram/Gram_run-02/stereo_2MP87U3.wav	2.0	1	2.2220000000000004
127.5529	7.6370000000000005	G_P	2.0	n/a	n/a	2.0	4.195	Gram/Gram_run-02/stereo_2MP73U1.wav	2.0	1	2.168
135.1929	7.305	G_C	1.0	n/a	n/a	1.0	0.39	Gram/Gram_run-02/CoM02l.wav	1.0	1	1.1400000000000001
142.4994	5.983	G_G	1.0	n/a	n/a	1.0	3.14	Gram/Gram_run-02/stereo_1MP42G3.wav	1.0	1	2.218
148.4871	5.36	G_P	2.0	n/a	n/a	2.0	2.803	Gram/Gram_run-02/stereo_1MP32U2.wav	2.0	1	1.7969999999999997
153.8576	7.145	G_C	1.0	n/a	n/a	1.0	0.32899999999999996	Gram/Gram_run-02/CoM09e.wav	1.0	1	1.079
161.0128	6.28	G_F	2.0	n/a	n/a	2.0	4.402	Gram/Gram_run-02/stereo_1MF19U4.wav	2.0	1	3.716
167.3005	6.63	G_C	1.0	n/a	n/a	1.0	1.845	Gram/Gram_run-02/CoM07b.wav	1.0	1	2.5949999999999998
173.9386	7.195	G_G	1.0	n/a	n/a	1.0	4.398	Gram/Gram_run-02/stereo_2MP89G3.wav	1.0	1	3.0599999999999996
181.1437	5.1739999999999995	G_F	2.0	n/a	n/a	2.0	2.4930000000000003	Gram/Gram_run-02/stereo_1MF07U2.wav	2.0	1	3.2430000000000003
186.3308	6.944	G_P	2.0	n/a	n/a	2.0	3.343	Gram/Gram_run-02/stereo_2MP88U3.wav	2.0	1	2.3
193.2858	6.0889999999999995	G_G	1.0	n/a	n/a	1.0	3.595	Gram/Gram_run-02/stereo_2MF66G3.wav	1.0	1	2.2210000000000005
199.3896	6.5	G_C	1.0	n/a	n/a	1.0	3.2960000000000003	Gram/Gram_run-02/CoM01e.wav	1.0	1	4.046
205.8946	6.43	G_P	2.0	n/a	n/a	2.0	3.588	Gram/Gram_run-02/stereo_1MP43U4.wav	2.0	1	1.306
212.3325	6.19	G_G	1.0	n/a	n/a	1.0	3.498	Gram/Gram_run-02/stereo_2MP84G2.wav	1.0	1	2.5660000000000003
218.537	7.114	G_G	1.0	n/a	n/a	1.0	5.666	Gram/Gram_run-02/stereo_1MP29G1.wav	1.0	1	3.478
225.6587	6.731	G_F	2.0	n/a	n/a	2.0	3.595	Gram/Gram_run-02/stereo_2MF53U1.wav	2.0	1	3.024
232.3969	6.015	G_C	1.0	n/a	n/a	1.0	1.646	Gram/Gram_run-02/CoM02d.wav	1.0	1	2.396
238.4179	7.17	G_G	1.0	n/a	n/a	2.0	4.045	Gram/Gram_run-02/stereo_2MF71G4.wav	2.0	0	1.7959999999999994
245.5909	5.33	G_C	1.0	n/a	n/a	1.0	0.733	Gram/Gram_run-02/CoM06b.wav	1.0	1	1.483
250.9316	6.9689999999999985	G_F	2.0	n/a	n/a	2.0	3.5610000000000004	Gram/Gram_run-02/stereo_2MF54U1.wav	2.0	1	2.9910000000000005
257.9045	7.6	G_G	1.0	n/a	n/a	2.0	3.576	Gram/Gram_run-02/stereo_2MF49G1.wav	2.0	0	1.387
