onset	duration	trial_type	correct	window1_response	window1_RT	window2_response	window2_RT	stim_file	calculated_response	calculated_accuracy	calculated_RT
1.101	3.5	P_R	1.0	n/a	n/a	1.0	1.659	Phon/Phon_run-02/stereo_PR20.wav	1.0	1	1.409
4.603	4.235	P_O	1.0	n/a	n/a	1.0	1.45	Phon/Phon_run-02/PC034.wav	1.0	1	1.2
8.84	3.375	P_R	1.0	n/a	n/a	1.0	1.6	Phon/Phon_run-02/stereo_PR13.wav	1.0	1	1.35
12.225999999999999	3.474	P_C	1.0	n/a	n/a	1.0	1.375	Phon/Phon_run-02/ContS12.wav	1.0	1	2.125
15.712	3.875	P_U	2.0	n/a	n/a	2.0	1.536	Phon/Phon_run-02/PM025.wav	2.0	1	1.286
19.598	3.726	P_R	1.0	n/a	n/a	1.0	1.304	Phon/Phon_run-02/stereo_PR22.wav	1.0	1	1.054
23.335	3.451	P_O	1.0	n/a	n/a	1.0	1.354	Phon/Phon_run-02/PC014.wav	1.0	1	1.104
26.787	3.779	P_C	1.0	n/a	n/a	1.0	1.3090000000000002	Phon/Phon_run-02/ContS02.wav	1.0	1	2.059
30.573	3.821	P_U	2.0	n/a	n/a	2.0	1.251	Phon/Phon_run-02/stereo_PU18.wav	2.0	1	1.001
34.41	3.49	P_U	2.0	n/a	n/a	2.0	1.348	Phon/Phon_run-02/stereo_PU12.wav	2.0	1	1.098
37.912	4.38	P_C	1.0	n/a	n/a	2.0	1.777	Phon/Phon_run-02/ContS32.wav	2.0	0	2.527
42.299	4.0969999999999995	P_R	1.0	n/a	n/a	1.0	1.713	Phon/Phon_run-02/stereo_PR16.wav	1.0	1	1.463
46.402	3.5	P_O	1.0	n/a	n/a	1.0	1.232	Phon/Phon_run-02/PC022.wav	1.0	1	0.982
49.905	4.0760000000000005	P_R	1.0	n/a	n/a	1.0	1.4069999999999998	Phon/Phon_run-02/stereo_PR08.wav	1.0	1	1.1569999999999998
53.992	3.5	P_O	1.0	n/a	n/a	1.0	1.6159999999999999	Phon/Phon_run-02/PC028.wav	1.0	1	1.3659999999999999
57.494	3.5	P_U	2.0	n/a	n/a	2.0	1.405	Phon/Phon_run-02/stereo_PU27.wav	2.0	1	1.155
60.997	3.819	P_C	1.0	n/a	n/a	1.0	1.3230000000000002	Phon/Phon_run-02/ContS06.wav	1.0	1	2.0730000000000004
64.817	4.25	P_O	1.0	n/a	n/a	1.0	2.0380000000000003	Phon/Phon_run-02/PC031.wav	1.0	1	1.7880000000000003
69.07	3.662	P_C	1.0	n/a	n/a	1.0	1.758	Phon/Phon_run-02/ContS36.wav	1.0	1	2.508
72.73899999999998	3.823	P_O	1.0	n/a	n/a	1.0	1.459	Phon/Phon_run-02/PC023.wav	1.0	1	1.209
76.57600000000002	4.323	P_C	1.0	n/a	n/a	1.0	1.492	Phon/Phon_run-02/ContS24.wav	1.0	1	2.242
80.91199999999998	3.865	P_U	2.0	n/a	n/a	2.0	1.517	Phon/Phon_run-02/PM004.wav	2.0	1	1.267
84.78200000000002	3.875	P_O	1.0	n/a	n/a	1.0	1.4080000000000001	Phon/Phon_run-02/PC007.wav	1.0	1	1.1580000000000001
88.66799999999998	4.25	P_U	2.0	n/a	n/a	2.0	1.526	Phon/Phon_run-02/PM011.wav	2.0	1	1.276
92.92200000000001	4.362	P_C	1.0	n/a	n/a	1.0	1.6219999999999999	Phon/Phon_run-02/ContS30.wav	1.0	1	2.372
97.292	3.875	P_O	1.0	n/a	n/a	2.0	1.673	Phon/Phon_run-02/PC030.wav	2.0	0	1.423
101.178	3.3360000000000003	P_R	1.0	n/a	n/a	1.0	1.402	Phon/Phon_run-02/stereo_PR05.wav	1.0	1	1.152
104.514	4.113	P_U	2.0	n/a	n/a	2.0	1.47	Phon/Phon_run-02/stereo_PU01.wav	2.0	1	1.22
108.634	4.1739999999999995	P_U	2.0	n/a	n/a	2.0	2.217	Phon/Phon_run-02/PM029.wav	2.0	1	1.967
112.82	3.4539999999999997	P_C	1.0	n/a	n/a	1.0	1.473	Phon/Phon_run-02/ContS08.wav	1.0	1	2.223
116.29	3.446	P_R	1.0	n/a	n/a	1.0	1.675	Phon/Phon_run-02/stereo_PR30.wav	1.0	1	1.425
119.742	3.85	P_R	1.0	n/a	n/a	2.0	1.6219999999999999	Phon/Phon_run-02/stereo_PR07.wav	2.0	0	1.3719999999999999
123.595	3.438	P_U	2.0	n/a	n/a	2.0	1.4409999999999998	Phon/Phon_run-02/stereo_PU02.wav	2.0	1	1.1909999999999998
127.04799999999999	3.915	P_C	1.0	n/a	n/a	1.0	1.5759999999999998	Phon/Phon_run-02/ContS20.wav	1.0	1	2.3259999999999996
130.968	3.487	P_U	2.0	n/a	n/a	2.0	1.331	Phon/Phon_run-02/PM021.wav	2.0	1	1.081
134.47	3.965	P_C	1.0	n/a	n/a	1.0	1.726	Phon/Phon_run-02/ContS26.wav	1.0	1	2.476
138.44	3.792	P_R	1.0	n/a	n/a	1.0	1.8730000000000002	Phon/Phon_run-02/stereo_PR31.wav	1.0	1	1.6230000000000002
142.243	4.135	P_O	1.0	n/a	n/a	1.0	1.474	Phon/Phon_run-02/PC024.wav	1.0	1	1.224
146.38	3.875	P_U	2.0	n/a	n/a	2.0	1.339	Phon/Phon_run-02/PM010.wav	2.0	1	1.089
150.266	3.875	P_O	1.0	n/a	n/a	1.0	1.6340000000000001	Phon/Phon_run-02/PC015.wav	1.0	1	1.3840000000000001
154.15200000000004	4.245	P_C	1.0	n/a	n/a	1.0	1.486	Phon/Phon_run-02/ContS14.wav	1.0	1	2.2359999999999998
158.406	3.854	P_R	1.0	n/a	n/a	1.0	1.4380000000000002	Phon/Phon_run-02/stereo_PR14.wav	1.0	1	1.1880000000000002
162.275	4.239	P_O	1.0	n/a	n/a	1.0	1.5	Phon/Phon_run-02/PC008.wav	1.0	1	1.25
166.52900000000002	4.25	P_U	2.0	n/a	n/a	2.0	1.475	Phon/Phon_run-02/stereo_PU11.wav	2.0	1	1.225
170.782	3.523	P_C	1.0	n/a	n/a	1.0	1.482	Phon/Phon_run-02/ContS18.wav	1.0	1	2.232
174.31799999999996	3.429	P_O	1.0	n/a	n/a	1.0	1.296	Phon/Phon_run-02/PC006.wav	1.0	1	1.046
177.75400000000005	4.18	P_R	1.0	n/a	n/a	1.0	1.5319999999999998	Phon/Phon_run-02/stereo_PR32.wav	1.0	1	1.2819999999999998
181.94099999999997	4.104	P_R	1.0	n/a	n/a	1.0	2.247	Phon/Phon_run-02/stereo_PR24.wav	1.0	1	1.9969999999999999
