onset	duration	trial_type	correct	window1_response	window1_RT	window2_response	window2_RT	stim_file	calculated_response	calculated_accuracy	calculated_RT
1.084	6.343	SP_S	1.0	n/a	n/a	1.0	3.875	Plaus/Plaus_run-02/stereo_PC37.wav	1.0	1	1.7139999999999995
7.439	6.345	SP_W	1.0	n/a	n/a	1.0	4.463	Plaus/Plaus_run-02/stereo_PW74.wav	1.0	1	2.494
13.794	6.095	SP_C	1.0	n/a	n/a	1.0	3.696	Plaus/Plaus_run-02/CoM10d.wav	1.0	1	4.4460000000000015
19.899	6.401	SP_I	2.0	n/a	n/a	2.0	3.134	Plaus/Plaus_run-02/stereo_PI56.wav	2.0	1	2.2669999999999995
26.304000000000002	6.407	SP_W	1.0	n/a	n/a	2.0	4.459	Plaus/Plaus_run-02/stereo_PW39.wav	2.0	0	2.4319999999999995
32.725	6.8420000000000005	SP_I	2.0	n/a	n/a	2.0	4.1160000000000005	Plaus/Plaus_run-02/stereo_PI44.wav	2.0	1	1.9190000000000005
39.58	7.7	SP_C	1.0	n/a	n/a	1.0	4.113	Plaus/Plaus_run-02/CoM07e.wav	1.0	1	4.863
47.286	5.756	SP_S	1.0	n/a	n/a	2.0	2.847	Plaus/Plaus_run-02/stereo_PC03.wav	2.0	0	1.905
53.058	7.372000000000001	SP_S	1.0	n/a	n/a	1.0	3.775	Plaus/Plaus_run-02/stereo_PC82.wav	1.0	1	1.7199999999999998
60.43	6.095	SP_C	1.0	n/a	n/a	1.0	3.695	Plaus/Plaus_run-02/CoM04d.wav	1.0	1	4.445
66.535	6.303	SP_I	2.0	n/a	n/a	1.0	4.401	Plaus/Plaus_run-02/stereo_PI23.wav	1.0	0	3.417
72.839	5.655	SP_I	2.0	n/a	n/a	2.0	4.338	Plaus/Plaus_run-02/stereo_PI22.wav	2.0	1	3.4189999999999996
78.494	6.85	SP_C	1.0	n/a	n/a	1.0	3.707	Plaus/Plaus_run-02/CoM08d.wav	1.0	1	4.457
85.34899999999998	6.9179999999999975	SP_S	1.0	n/a	n/a	1.0	4.026	Plaus/Plaus_run-02/stereo_PC79.wav	1.0	1	1.7800000000000002
92.271	5.233	SP_I	2.0	n/a	n/a	2.0	2.8	Plaus/Plaus_run-02/stereo_PI21.wav	2.0	1	1.76
97.508	6.385	SP_S	1.0	n/a	n/a	1.0	2.6889999999999996	Plaus/Plaus_run-02/stereo_PC46.wav	1.0	1	1.7269999999999999
103.897	6.282	SP_W	1.0	n/a	n/a	1.0	3.377	Plaus/Plaus_run-02/stereo_PW64.wav	1.0	1	2.271
110.185	7.69	SP_C	1.0	n/a	n/a	1.0	4.07	Plaus/Plaus_run-02/CoM04e.wav	1.0	1	4.82
117.891	6.316	SP_I	2.0	n/a	n/a	2.0	3.963	Plaus/Plaus_run-02/stereo_PI34.wav	2.0	1	1.806
124.212	5.47	SP_C	1.0	n/a	n/a	1.0	3.752	Plaus/Plaus_run-02/CoM10b.wav	1.0	1	4.502
129.683	5.636	SP_I	2.0	n/a	n/a	2.0	3.016	Plaus/Plaus_run-02/stereo_PI55.wav	2.0	1	2.177
135.321	7.461	SP_W	1.0	n/a	n/a	1.0	3.708	Plaus/Plaus_run-02/stereo_PW83.wav	1.0	1	1.7040000000000006
142.793	5.48	SP_C	1.0	n/a	n/a	1.0	3.359	Plaus/Plaus_run-02/CoM01b.wav	1.0	1	4.109
148.281	6.2120000000000015	SP_W	1.0	n/a	n/a	1.0	2.835	Plaus/Plaus_run-02/stereo_PW08.wav	1.0	1	1.974
154.502	4.694	SP_W	1.0	n/a	n/a	1.0	2.748	Plaus/Plaus_run-02/stereo_PW07.wav	1.0	1	1.873
159.20600000000005	6.197	SP_I	2.0	n/a	n/a	2.0	3.8680000000000003	Plaus/Plaus_run-02/stereo_PI43.wav	2.0	1	1.8080000000000005
165.41099999999997	6.1979999999999995	SP_S	1.0	n/a	n/a	1.0	2.535	Plaus/Plaus_run-02/stereo_PC59.wav	1.0	1	1.5340000000000005
171.61599999999999	7.345	SP_C	1.0	n/a	n/a	2.0	4.43	Plaus/Plaus_run-02/CoM05l.wav	2.0	0	5.18
178.97099999999998	5.2429999999999986	SP_S	1.0	n/a	n/a	1.0	3.014	Plaus/Plaus_run-02/stereo_PC02.wav	1.0	1	2.135
184.225	6.82	SP_C	1.0	n/a	n/a	1.0	4.159	Plaus/Plaus_run-02/CoM09l.wav	1.0	1	4.909
191.047	7.183	SP_I	2.0	n/a	n/a	2.0	3.736	Plaus/Plaus_run-02/stereo_PI78.wav	2.0	1	1.818
198.236	6.727	SP_W	1.0	n/a	n/a	1.0	4.5939999999999985	Plaus/Plaus_run-02/stereo_PW40.wav	1.0	1	2.3609999999999998
204.975	5.181	SP_S	1.0	n/a	n/a	1.0	3.237	Plaus/Plaus_run-02/stereo_PC60.wav	1.0	1	1.9469999999999998
210.162	7.135	SP_W	1.0	n/a	n/a	1.0	3.904	Plaus/Plaus_run-02/stereo_PW73.wav	1.0	1	1.9719999999999995
217.301	6.76	SP_C	1.0	n/a	n/a	1.0	4.601	Plaus/Plaus_run-02/CoM04l.wav	1.0	1	5.351
224.07299999999998	6.682	SP_I	2.0	n/a	n/a	2.0	3.898	Plaus/Plaus_run-02/stereo_PI75.wav	2.0	1	1.902
230.761	6.002999999999999	SP_W	1.0	n/a	n/a	1.0	3.557	Plaus/Plaus_run-02/stereo_PW63.wav	1.0	1	2.41
236.766	5.0760000000000005	SP_W	1.0	n/a	n/a	1.0	2.9419999999999997	Plaus/Plaus_run-02/stereo_PW05.wav	1.0	1	2.164
241.85299999999998	6.218	SP_S	1.0	n/a	n/a	1.0	3.806	Plaus/Plaus_run-02/stereo_PC69.wav	1.0	1	1.5690000000000004
248.074	6.569	SP_S	1.0	n/a	n/a	1.0	5.0280000000000005	Plaus/Plaus_run-02/stereo_PC70.wav	1.0	1	3.1520000000000006
