onset	duration	trial_type	correct	window1_response	window1_RT	window2_response	window2_RT	stim_file	calculated_response	calculated_accuracy	calculated_RT
1.0925	3.4539999999999997	P_R	1.0	n/a	n/a	n/a	n/a	Phon/Phon_run-01/stereo_PR01.wav	n/a	0	n/a
4.5615	3.767	P_O	1.0	n/a	n/a	1.0	1.117	Phon/Phon_run-01/PC018.wav	1.0	1	0.867
8.3317	3.391	P_O	1.0	n/a	n/a	1.0	1.035	Phon/Phon_run-01/PC009.wav	1.0	1	0.7849999999999999
11.7341	4.374	P_C	1.0	n/a	n/a	1.0	0.156	Phon/Phon_run-01/ContS11.wav	1.0	1	0.906
16.1207	3.345	P_U	2.0	n/a	n/a	2.0	0.809	Phon/Phon_run-01/PM002.wav	2.0	1	0.559
19.473	4.4510000000000005	P_C	1.0	n/a	n/a	1.0	0.424	Phon/Phon_run-01/ContS21.wav	1.0	1	1.174
23.9275	4.382	P_O	1.0	n/a	n/a	1.0	1.202	Phon/Phon_run-01/PC005.wav	1.0	1	0.952
28.314	3.3	P_U	2.0	n/a	n/a	2.0	1.8459999999999999	Phon/Phon_run-01/stereo_PU26.wav	2.0	1	1.596
31.6165	4.324	P_C	1.0	n/a	n/a	1.0	0.35200000000000004	Phon/Phon_run-01/ContS03.wav	1.0	1	1.102
35.9529	4.378	P_R	1.0	n/a	n/a	1.0	1.383	Phon/Phon_run-01/stereo_PR29.wav	1.0	1	1.133
40.3393	3.4810000000000003	P_U	2.0	n/a	n/a	2.0	1.6740000000000002	Phon/Phon_run-01/PM020.wav	2.0	1	1.4240000000000002
43.8252	4.393	P_O	1.0	n/a	n/a	1.0	1.245	Phon/Phon_run-01/PC027.wav	1.0	1	0.9950000000000001
48.2284	4.4	P_R	1.0	n/a	n/a	1.0	1.15	Phon/Phon_run-01/stereo_PR11.wav	1.0	1	0.8999999999999999
52.6316	3.884	P_C	1.0	n/a	n/a	1.0	0.366	Phon/Phon_run-01/ContS05.wav	1.0	1	1.116
56.5186	3.891	P_U	2.0	n/a	n/a	n/a	n/a	Phon/Phon_run-01/stereo_PU28.wav	n/a	0	n/a
60.4213	4.4	P_O	1.0	n/a	n/a	1.0	1.046	Phon/Phon_run-01/PC013.wav	1.0	1	0.796
64.8247	3.513	P_C	1.0	n/a	n/a	1.0	0.24600000000000002	Phon/Phon_run-01/ContS17.wav	1.0	1	0.996
68.3439	4.4	P_U	2.0	n/a	n/a	1.0	2.5340000000000003	Phon/Phon_run-01/PM027.wav	1.0	0	2.2840000000000003
72.7471	4.4	P_O	1.0	n/a	n/a	1.0	1.462	Phon/Phon_run-01/PC021.wav	1.0	1	1.212
77.1504	4.496	P_C	1.0	n/a	n/a	1.0	0.665	Phon/Phon_run-01/ContS29.wav	1.0	1	1.415
81.6536	3.3680000000000003	P_R	1.0	n/a	n/a	n/a	n/a	Phon/Phon_run-01/stereo_PR25.wav	n/a	0	n/a
85.0239	3.95	P_O	1.0	n/a	n/a	1.0	1.72	Phon/Phon_run-01/PC012.wav	1.0	1	1.47
88.9768	3.95	P_U	2.0	n/a	n/a	2.0	2.425	Phon/Phon_run-01/PM003.wav	2.0	1	2.175
92.9297	3.939	P_O	1.0	n/a	n/a	1.0	1.57	Phon/Phon_run-01/PC004.wav	1.0	1	1.32
96.8826	3.59	P_C	1.0	n/a	n/a	n/a	n/a	Phon/Phon_run-01/ContS27.wav	n/a	0	n/a
100.4851	4.296	P_U	2.0	n/a	n/a	n/a	n/a	Phon/Phon_run-01/stereo_PU21.wav	n/a	0	n/a
104.7882	3.862	P_R	1.0	n/a	n/a	n/a	n/a	Phon/Phon_run-01/stereo_PR26.wav	n/a	0	n/a
108.6576	3.95	P_O	1.0	n/a	n/a	2.0	1.4880000000000002	Phon/Phon_run-01/PC026.wav	2.0	0	1.2380000000000002
112.6107	3.5	P_O	1.0	n/a	n/a	2.0	1.9709999999999999	Phon/Phon_run-01/PC025.wav	2.0	0	1.721
116.1133	4.013	P_C	1.0	n/a	n/a	1.0	0.664	Phon/Phon_run-01/ContS23.wav	1.0	1	1.4140000000000001
120.1329	3.792	P_R	1.0	n/a	n/a	n/a	n/a	Phon/Phon_run-01/stereo_PR18.wav	n/a	0	n/a
123.9359	3.346	P_U	2.0	n/a	n/a	n/a	n/a	Phon/Phon_run-01/stereo_PU19.wav	n/a	0	n/a
127.2885	3.891	P_R	1.0	n/a	n/a	1.0	1.18	Phon/Phon_run-01/stereo_PR03.wav	1.0	1	0.9299999999999999
131.1913	3.355	P_O	1.0	n/a	n/a	2.0	2.022	Phon/Phon_run-01/PC003.wav	2.0	0	1.7719999999999998
134.5604	3.951	P_C	1.0	n/a	n/a	1.0	0.107	Phon/Phon_run-01/ContS15.wav	1.0	1	0.857
138.5144	3.74	P_U	2.0	n/a	n/a	2.0	1.6880000000000002	Phon/Phon_run-01/stereo_PU16.wav	2.0	1	1.4380000000000002
142.2671	3.95	P_R	1.0	n/a	n/a	n/a	n/a	Phon/Phon_run-01/stereo_PR10.wav	n/a	0	n/a
146.22	3.464	P_C	1.0	n/a	n/a	1.0	1.9080000000000001	Phon/Phon_run-01/ContS09.wav	1.0	1	2.658
149.6892	4.275	P_R	1.0	n/a	n/a	2.0	2.318	Phon/Phon_run-01/stereo_PR04.wav	2.0	0	2.068
153.9756	3.95	P_U	2.0	n/a	n/a	2.0	1.8659999999999999	Phon/Phon_run-01/PM023.wav	2.0	1	1.616
157.9284	4.4	P_U	2.0	n/a	n/a	2.0	1.9369999999999998	Phon/Phon_run-01/PM001.wav	2.0	1	1.687
162.3319	3.665	P_C	1.0	n/a	n/a	1.0	0.14800000000000002	Phon/Phon_run-01/ContS35.wav	1.0	1	0.898
166.0011	3.463	P_O	1.0	n/a	n/a	n/a	n/a	Phon/Phon_run-01/PC017.wav	n/a	0	n/a
169.4703	4.332	P_R	1.0	n/a	n/a	2.0	1.173	Phon/Phon_run-01/stereo_PR19.wav	2.0	0	0.923
173.8067	4.083	P_C	1.0	n/a	n/a	1.0	0.836	Phon/Phon_run-01/ContS33.wav	1.0	1	1.5859999999999999
177.893	3.5	P_R	1.0	n/a	n/a	1.0	2.273	Phon/Phon_run-01/stereo_PR17.wav	1.0	1	2.023
181.3956	4.2669999999999995	P_U	2.0	n/a	n/a	2.0	1.361	Phon/Phon_run-01/PM009.wav	2.0	1	1.111
185.6658	3.4389999999999996	P_R	1.0	n/a	n/a	1.0	1.7480000000000002	Phon/Phon_run-01/stereo_PR09.wav	1.0	1	1.4980000000000002
