onset	duration	trial_type	correct	window1_response	window1_RT	window2_response	window2_RT	stim_file	calculated_response	calculated_accuracy	calculated_RT
1.101	7.034	SP_W	1.0	n/a	n/a	1.0	4.468	Plaus/Plaus_run-01/stereo_PW85.wav	1.0	1	2.3209999999999997
8.139	5.641	SP_I	2.0	n/a	n/a	2.0	2.602	Plaus/Plaus_run-01/stereo_PI11.wav	2.0	1	1.6819999999999997
13.794	6.77	SP_C	1.0	1.0	0.433	1.0	1.715	Plaus/Plaus_run-01/CoM08b.wav	1.0	1	0.433
20.566	7.327000000000001	SP_W	1.0	n/a	n/a	1.0	3.883	Plaus/Plaus_run-01/stereo_PW72.wav	1.0	1	1.903
27.905	6.145	SP_C	1.0	1.0	0.602	1.0	1.864	Plaus/Plaus_run-01/CoM05d.wav	1.0	1	0.602
34.059	5.181	SP_I	2.0	n/a	n/a	2.0	3.1630000000000003	Plaus/Plaus_run-01/stereo_PI65.wav	2.0	1	2.221
39.246	5.092	SP_S	1.0	n/a	n/a	2.0	3.569	Plaus/Plaus_run-01/stereo_PC13.wav	2.0	0	2.506
44.35	7.355	SP_C	1.0	1.0	0.48100000000000004	1.0	1.069	Plaus/Plaus_run-01/CoM06l.wav	1.0	1	0.481
51.706	7.47	SP_I	2.0	n/a	n/a	2.0	4.4510000000000005	Plaus/Plaus_run-01/stereo_PI90.wav	2.0	1	2.2800000000000007
59.178	7.399	SP_S	1.0	n/a	n/a	1.0	3.7960000000000003	Plaus/Plaus_run-01/stereo_PC35.wav	1.0	1	1.529
66.584	5.685	SP_S	1.0	n/a	n/a	1.0	3.1189999999999998	Plaus/Plaus_run-01/stereo_PC47.wav	1.0	1	2.1100000000000003
72.27199999999998	5.669	SP_W	1.0	n/a	n/a	2.0	2.7260000000000004	Plaus/Plaus_run-01/stereo_PW19.wav	2.0	0	1.7200000000000004
77.943	7.9	SP_C	1.0	1.0	0.623	1.0	1.32	Plaus/Plaus_run-01/CoM03l.wav	1.0	1	0.623
85.84899999999998	5.145	SP_I	2.0	n/a	n/a	2.0	3.263	Plaus/Plaus_run-01/stereo_PI09.wav	2.0	1	2.255
91.003	6.9170000000000025	SP_W	1.0	n/a	n/a	1.0	4.144	Plaus/Plaus_run-01/stereo_PW30.wav	1.0	1	2.024
97.924	5.738	SP_S	1.0	n/a	n/a	2.0	2.912	Plaus/Plaus_run-01/stereo_PC14.wav	2.0	0	1.7409999999999999
103.662	6.276	SP_W	1.0	n/a	n/a	1.0	2.8080000000000003	Plaus/Plaus_run-01/stereo_PW50.wav	1.0	1	1.9860000000000002
109.95	5.49	SP_C	1.0	1.0	0.436	1.0	1.288	Plaus/Plaus_run-01/CoM03d.wav	1.0	1	0.436
115.454	5.7	SP_I	2.0	n/a	n/a	2.0	3.054	Plaus/Plaus_run-01/stereo_PI67.wav	2.0	1	2.163
121.159	7.237	SP_S	1.0	n/a	n/a	1.0	4.027	Plaus/Plaus_run-01/stereo_PC68.wav	1.0	1	2.061
128.398	6.49	SP_C	1.0	1.0	0.728	1.0	1.506	Plaus/Plaus_run-01/CoM03b.wav	1.0	1	0.728
134.903	6.25	SP_W	1.0	n/a	n/a	2.0	2.759	Plaus/Plaus_run-01/stereo_PW61.wav	2.0	0	1.779
141.157	6.952999999999999	SP_I	2.0	n/a	n/a	2.0	4.587	Plaus/Plaus_run-01/stereo_PI32.wav	2.0	1	2.4219999999999997
148.113	7.085	SP_C	1.0	1.0	0.505	1.0	0.937	Plaus/Plaus_run-01/CoM02e.wav	1.0	1	0.505
155.201	6.3610000000000015	SP_S	1.0	n/a	n/a	1.0	4.247	Plaus/Plaus_run-01/stereo_PC24.wav	1.0	1	1.9889999999999999
161.57299999999995	5.1110000000000015	SP_W	1.0	n/a	n/a	2.0	2.833	Plaus/Plaus_run-01/stereo_PW53.wav	2.0	0	1.8190000000000004
166.69400000000005	6.2860000000000005	SP_I	2.0	n/a	n/a	2.0	4.099	Plaus/Plaus_run-01/stereo_PI42.wav	2.0	1	1.9030000000000005
172.982	6.577000000000001	SP_S	1.0	n/a	n/a	1.0	3.6460000000000004	Plaus/Plaus_run-01/stereo_PC57.wav	1.0	1	2.4509999999999996
179.57	5.273	SP_W	1.0	n/a	n/a	2.0	3.139	Plaus/Plaus_run-01/stereo_PW18.wav	2.0	0	1.9719999999999998
184.857	5.77	SP_C	1.0	1.0	0.665	1.0	1.391	Plaus/Plaus_run-01/CoM09b.wav	1.0	1	0.665
190.628	6.731	SP_S	1.0	n/a	n/a	1.0	4.678	Plaus/Plaus_run-01/stereo_PC26.wav	1.0	1	2.578
197.367	7.212999999999999	SP_I	2.0	n/a	n/a	2.0	4.167	Plaus/Plaus_run-01/stereo_PI33.wav	2.0	1	2.1839999999999997
204.58900000000003	5.181	SP_S	1.0	n/a	n/a	1.0	2.792	Plaus/Plaus_run-01/stereo_PC01.wav	1.0	1	1.851
209.776	6.238	SP_S	1.0	n/a	n/a	n/a	n/a	Plaus/Plaus_run-01/stereo_PC36.wav	n/a	0	n/a
216.014	7.73	SP_C	1.0	2.0	0.18600000000000003	1.0	0.045	Plaus/Plaus_run-01/CoM10e.wav	2.0	0	0.18600000000000005
223.754	6.843	SP_I	2.0	n/a	n/a	2.0	5.233	Plaus/Plaus_run-01/stereo_PI45.wav	2.0	1	3.106
230.609	6.101	SP_W	1.0	n/a	n/a	1.0	3.8160000000000003	Plaus/Plaus_run-01/stereo_PW28.wav	1.0	1	1.8839999999999995
236.713	7.419	SP_W	1.0	n/a	n/a	1.0	3.943	Plaus/Plaus_run-01/stereo_PW86.wav	1.0	1	1.9070000000000005
244.136	6.54	SP_C	1.0	1.0	0.537	1.0	1.094	Plaus/Plaus_run-01/CoM05e.wav	1.0	1	0.537
250.691	6.247000000000001	SP_I	2.0	n/a	n/a	1.0	3.5069999999999997	Plaus/Plaus_run-01/stereo_PI12.wav	1.0	0	2.636
