onset	duration	trial_type	correct	window1_response	window1_RT	window2_response	window2_RT	stim_file	calculated_response	calculated_accuracy	calculated_RT
1.0915	6.895	G_F	2.0	n/a	n/a	1.0	2.668	Gram/Gram_run-01/stereo_2MF57U2.wav	1.0	0	3.418
7.9964	7.175	G_F	2.0	n/a	n/a	2.0	2.513	Gram/Gram_run-01/stereo_1MF15U3.wav	2.0	1	3.263
15.1851	6.5070000000000014	G_G	1.0	n/a	n/a	1.0	2.911	Gram/Gram_run-01/stereo_1MF11G2.wav	1.0	1	1.7309999999999999
21.7065	6.505	G_C	1.0	n/a	n/a	1.0	0.20800000000000002	Gram/Gram_run-01/CoM09d.wav	1.0	1	0.958
28.2123	6.9479999999999995	G_F	2.0	n/a	n/a	2.0	3.372	Gram/Gram_run-01/stereo_2MF68U4.wav	2.0	1	2.646
35.1675	5.541	G_P	2.0	n/a	n/a	1.0	2.989	Gram/Gram_run-01/stereo_1MP37U3.wav	1.0	0	1.9539999999999997
40.7217	5.9479999999999995	G_G	1.0	n/a	n/a	1.0	3.977	Gram/Gram_run-01/stereo_2MF50G1.wav	1.0	1	1.8820000000000001
46.6761	6.013	G_F	2.0	n/a	n/a	2.0	3.43	Gram/Gram_run-01/stereo_1MF05U1.wav	2.0	1	2.8280000000000003
52.6972	7.87	G_C	1.0	1.0	0.736	n/a	n/a	Gram/Gram_run-01/CoM01l.wav	1.0	1	0.736
60.5705	6.4979999999999976	G_G	1.0	n/a	n/a	1.0	3.517	Gram/Gram_run-01/stereo_1MF23G4.wav	1.0	1	1.3359999999999999
67.0753	6.184	G_F	2.0	n/a	n/a	n/a	n/a	Gram/Gram_run-01/stereo_2MF55U2.wav	n/a	0	n/a
73.264	6.83	G_C	1.0	1.0	0.218	1.0	0.7090000000000001	Gram/Gram_run-01/CoM10l.wav	1.0	1	0.218
80.1023	7.505	G_G	1.0	n/a	n/a	1.0	4.183	Gram/Gram_run-01/stereo_2MP96G4.wav	1.0	1	1.7880000000000003
87.6086	7.1370000000000005	G_G	1.0	n/a	n/a	1.0	4.935	Gram/Gram_run-01/stereo_1MP47G4.wav	1.0	1	2.468
94.74799999999999	6.694	G_F	2.0	n/a	n/a	1.0	2.596	Gram/Gram_run-01/stereo_2MF61U3.wav	1.0	0	3.346
101.4529	5.39	G_C	1.0	n/a	n/a	1.0	0.48	Gram/Gram_run-01/CoM01d.wav	1.0	1	1.23
106.8569	6.5760000000000005	G_G	1.0	n/a	n/a	1.0	2.6189999999999998	Gram/Gram_run-01/stereo_1MP35G2.wav	1.0	1	1.6150000000000002
113.4451	5.3389999999999995	G_F	2.0	n/a	n/a	2.0	3.534	Gram/Gram_run-01/stereo_2MF69U4.wav	2.0	1	2.7960000000000003
118.7989	7.94	G_C	1.0	n/a	n/a	1.0	0.183	Gram/Gram_run-01/CoM08l.wav	1.0	1	0.933
126.7476	6.006	G_P	2.0	n/a	n/a	1.0	3.653	Gram/Gram_run-01/stereo_1MP26U1.wav	1.0	0	1.677
132.7683	8.422	G_F	2.0	n/a	n/a	1.0	3.498	Gram/Gram_run-01/stereo_1MF06U1.wav	1.0	0	2.9029999999999996
141.1919	7.885	G_P	2.0	n/a	n/a	1.0	2.483	Gram/Gram_run-01/stereo_2MP81U2.wav	1.0	0	1.5979999999999999
149.082	6.127000000000002	G_G	1.0	n/a	n/a	1.0	2.983	Gram/Gram_run-01/stereo_2MP83G2.wav	1.0	1	1.9230000000000003
155.2198	5.765	G_C	1.0	n/a	n/a	1.0	0.261	Gram/Gram_run-01/CoM02b.wav	1.0	1	1.0110000000000001
160.9908	6.706	G_P	2.0	n/a	n/a	2.0	4.374	Gram/Gram_run-01/stereo_2MP93U4.wav	2.0	1	1.9740000000000002
167.7098	6.61	G_P	2.0	n/a	n/a	2.0	4.013	Gram/Gram_run-01/stereo_1MP28U1.wav	2.0	1	1.8980000000000006
174.3313	6.63	G_C	1.0	1.0	0.7340000000000001	n/a	n/a	Gram/Gram_run-01/CoM04b.wav	1.0	1	0.7340000000000001
180.9695	5.665	G_P	2.0	n/a	n/a	1.0	3.486	Gram/Gram_run-01/stereo_1MP27U1.wav	1.0	0	1.4840000000000004
186.6404	7.55	G_G	1.0	n/a	n/a	1.0	3.8680000000000003	Gram/Gram_run-01/stereo_2MP77G1.wav	1.0	1	1.7689999999999997
194.1961	6.51	G_C	1.0	n/a	n/a	2.0	0.552	Gram/Gram_run-01/CoM03e.wav	2.0	0	1.302
200.7177	6.98	G_P	2.0	n/a	n/a	2.0	4.412	Gram/Gram_run-01/stereo_2MP92U4.wav	2.0	1	2.0629999999999997
207.7062	7.047999999999999	G_G	1.0	n/a	n/a	1.0	2.6630000000000003	Gram/Gram_run-01/stereo_1MF12G2.wav	1.0	1	1.6290000000000002
214.7613	5.574	G_F	2.0	n/a	n/a	1.0	4.249	Gram/Gram_run-01/stereo_1MF04U1.wav	1.0	0	3.6609999999999996
220.3488	5.67	G_C	1.0	n/a	n/a	n/a	n/a	Gram/Gram_run-01/CoM07d.wav	n/a	0	n/a
226.0205	6.6160000000000005	G_P	2.0	n/a	n/a	1.0	2.696	Gram/Gram_run-01/stereo_1MP39U3.wav	1.0	0	1.6920000000000002
232.6421	5.695	G_P	2.0	n/a	n/a	2.0	2.5869999999999997	Gram/Gram_run-01/stereo_2MP82U2.wav	2.0	1	1.6660000000000004
238.3464	6.627000000000002	G_F	2.0	n/a	n/a	2.0	4.04	Gram/Gram_run-01/stereo_1MF13U3.wav	2.0	1	4.79
244.9846	7.145	G_C	1.0	n/a	n/a	1.0	0.188	Gram/Gram_run-01/CoM08e.wav	1.0	1	0.938
252.1398	6.805	G_G	1.0	n/a	n/a	1.0	3.117	Gram/Gram_run-01/stereo_1MP41G3.wav	1.0	1	1.811
258.9458	7.519	G_P	2.0	n/a	n/a	2.0	2.801	Gram/Gram_run-01/stereo_1MP38U3.wav	2.0	1	1.562
