onset	duration	trial_type	correct	window1_response	window1_RT	window2_response	window2_RT	stim_file	calculated_response	calculated_accuracy	calculated_RT
1.085	6.343	SP_S	1.0	n/a	n/a	1.0	4.461	Plaus/Plaus_run-02/stereo_PC37.wav	1.0	1	2.3
7.44	6.345	SP_W	1.0	n/a	n/a	1.0	3.925	Plaus/Plaus_run-02/stereo_PW74.wav	1.0	1	1.956
13.794	6.095	SP_C	1.0	1.0	0.66	1.0	1.801	Plaus/Plaus_run-02/CoM10d.wav	1.0	1	0.66
19.899	6.401	SP_I	2.0	n/a	n/a	2.0	2.69	Plaus/Plaus_run-02/stereo_PI56.wav	2.0	1	1.823
26.304000000000002	6.407	SP_W	1.0	n/a	n/a	1.0	4.0139999999999985	Plaus/Plaus_run-02/stereo_PW39.wav	1.0	1	1.9869999999999992
32.726	6.8420000000000005	SP_I	2.0	n/a	n/a	2.0	3.5839999999999996	Plaus/Plaus_run-02/stereo_PI44.wav	2.0	1	1.3869999999999998
39.580999999999996	7.7	SP_C	1.0	n/a	n/a	1.0	0.048	Plaus/Plaus_run-02/CoM07e.wav	1.0	1	0.7979999999999999
47.287	5.756	SP_S	1.0	n/a	n/a	1.0	2.7510000000000003	Plaus/Plaus_run-02/stereo_PC03.wav	1.0	1	1.8090000000000008
53.058	7.372000000000001	SP_S	1.0	n/a	n/a	1.0	3.963	Plaus/Plaus_run-02/stereo_PC82.wav	1.0	1	1.9080000000000001
60.431000000000004	6.095	SP_C	1.0	n/a	n/a	1.0	0.18899999999999997	Plaus/Plaus_run-02/CoM04d.wav	1.0	1	0.939
66.535	6.303	SP_I	2.0	n/a	n/a	2.0	2.99	Plaus/Plaus_run-02/stereo_PI23.wav	2.0	1	2.006
72.84	5.655	SP_I	2.0	n/a	n/a	2.0	3.273	Plaus/Plaus_run-02/stereo_PI22.wav	2.0	1	2.354
78.51100000000002	6.85	SP_C	1.0	1.0	0.634	1.0	2.1519999999999997	Plaus/Plaus_run-02/CoM08d.wav	1.0	1	0.634
85.366	6.9179999999999975	SP_S	1.0	n/a	n/a	1.0	3.8280000000000003	Plaus/Plaus_run-02/stereo_PC79.wav	1.0	1	1.5820000000000003
92.289	5.233	SP_I	2.0	n/a	n/a	2.0	2.99	Plaus/Plaus_run-02/stereo_PI21.wav	2.0	1	1.9500000000000004
97.52600000000001	6.385	SP_S	1.0	n/a	n/a	1.0	3.093	Plaus/Plaus_run-02/stereo_PC46.wav	1.0	1	2.131
103.914	6.282	SP_W	1.0	n/a	n/a	1.0	3.17	Plaus/Plaus_run-02/stereo_PW64.wav	1.0	1	2.064
110.20200000000001	7.69	SP_C	1.0	n/a	n/a	1.0	0.017	Plaus/Plaus_run-02/CoM04e.wav	1.0	1	0.767
117.89200000000001	6.316	SP_I	2.0	n/a	n/a	2.0	4.039	Plaus/Plaus_run-02/stereo_PI34.wav	2.0	1	1.882
124.213	5.47	SP_C	1.0	n/a	n/a	1.0	0.113	Plaus/Plaus_run-02/CoM10b.wav	1.0	1	0.863
129.684	5.636	SP_I	2.0	n/a	n/a	2.0	2.6889999999999996	Plaus/Plaus_run-02/stereo_PI55.wav	2.0	1	1.85
135.322	7.461	SP_W	1.0	n/a	n/a	1.0	3.7030000000000003	Plaus/Plaus_run-02/stereo_PW83.wav	1.0	1	1.6990000000000005
142.79399999999995	5.48	SP_C	1.0	n/a	n/a	1.0	0.45399999999999996	Plaus/Plaus_run-02/CoM01b.wav	1.0	1	1.204
148.282	6.2120000000000015	SP_W	1.0	n/a	n/a	1.0	3.332	Plaus/Plaus_run-02/stereo_PW08.wav	1.0	1	2.471
154.503	4.694	SP_W	1.0	n/a	n/a	1.0	2.41	Plaus/Plaus_run-02/stereo_PW07.wav	1.0	1	1.535
159.207	6.197	SP_I	2.0	n/a	n/a	2.0	3.89	Plaus/Plaus_run-02/stereo_PI43.wav	2.0	1	1.8300000000000003
165.412	6.1979999999999995	SP_S	1.0	n/a	n/a	1.0	2.472	Plaus/Plaus_run-02/stereo_PC59.wav	1.0	1	1.4709999999999999
171.61700000000005	7.345	SP_C	1.0	n/a	n/a	1.0	0.03	Plaus/Plaus_run-02/CoM05l.wav	1.0	1	0.78
178.972	5.2429999999999986	SP_S	1.0	n/a	n/a	1.0	2.7230000000000003	Plaus/Plaus_run-02/stereo_PC02.wav	1.0	1	1.8440000000000003
184.226	6.82	SP_C	1.0	n/a	n/a	1.0	0.026000000000000002	Plaus/Plaus_run-02/CoM09l.wav	1.0	1	0.7759999999999999
191.048	7.183	SP_I	2.0	n/a	n/a	2.0	3.4189999999999996	Plaus/Plaus_run-02/stereo_PI78.wav	2.0	1	1.501
198.237	6.727	SP_W	1.0	n/a	n/a	1.0	4.084	Plaus/Plaus_run-02/stereo_PW40.wav	1.0	1	1.8509999999999995
204.976	5.181	SP_S	1.0	n/a	n/a	1.0	3.198	Plaus/Plaus_run-02/stereo_PC60.wav	1.0	1	1.9080000000000001
210.16299999999998	7.135	SP_W	1.0	n/a	n/a	1.0	4.227	Plaus/Plaus_run-02/stereo_PW73.wav	1.0	1	2.295
217.30200000000002	6.76	SP_C	1.0	1.0	0.65	1.0	1.442	Plaus/Plaus_run-02/CoM04l.wav	1.0	1	0.65
224.074	6.682	SP_I	2.0	n/a	n/a	2.0	4.36	Plaus/Plaus_run-02/stereo_PI75.wav	2.0	1	2.3640000000000003
230.762	6.002999999999999	SP_W	1.0	n/a	n/a	1.0	3.7960000000000003	Plaus/Plaus_run-02/stereo_PW63.wav	1.0	1	2.6489999999999996
236.767	5.0760000000000005	SP_W	1.0	n/a	n/a	1.0	2.888	Plaus/Plaus_run-02/stereo_PW05.wav	1.0	1	2.11
241.854	6.218	SP_S	1.0	n/a	n/a	1.0	4.004	Plaus/Plaus_run-02/stereo_PC69.wav	1.0	1	1.767
248.076	6.569	SP_S	1.0	n/a	n/a	1.0	4.301	Plaus/Plaus_run-02/stereo_PC70.wav	1.0	1	2.4250000000000003
