onset	duration	trial_type	correct	window1_response	window1_RT	window2_response	window2_RT	stim_file	calculated_response	calculated_accuracy	calculated_RT
1.084	7.034	SP_W	1.0	n/a	n/a	1.0	5.111000000000001	Plaus/Plaus_run-01/stereo_PW85.wav	1.0	1	2.9640000000000013
8.123	5.641	SP_I	2.0	n/a	n/a	2.0	2.506	Plaus/Plaus_run-01/stereo_PI11.wav	2.0	1	1.5859999999999996
13.777	6.77	SP_C	1.0	n/a	n/a	1.0	0.29	Plaus/Plaus_run-01/CoM08b.wav	1.0	1	1.04
20.549	7.327000000000001	SP_W	1.0	n/a	n/a	1.0	3.516	Plaus/Plaus_run-01/stereo_PW72.wav	1.0	1	1.536
27.888	6.145	SP_C	1.0	n/a	n/a	1.0	0.389	Plaus/Plaus_run-01/CoM05d.wav	1.0	1	1.139
34.043	5.181	SP_I	2.0	n/a	n/a	1.0	2.7460000000000004	Plaus/Plaus_run-01/stereo_PI65.wav	1.0	0	1.8040000000000003
39.23	5.092	SP_S	1.0	n/a	n/a	1.0	2.8569999999999998	Plaus/Plaus_run-01/stereo_PC13.wav	1.0	1	1.794
44.334	7.355	SP_C	1.0	n/a	n/a	1.0	0.122	Plaus/Plaus_run-01/CoM06l.wav	1.0	1	0.872
51.69	7.47	SP_I	2.0	n/a	n/a	1.0	3.635	Plaus/Plaus_run-01/stereo_PI90.wav	1.0	0	1.464
59.163	7.399	SP_S	1.0	n/a	n/a	1.0	3.783	Plaus/Plaus_run-01/stereo_PC35.wav	1.0	1	1.516
66.568	5.685	SP_S	1.0	n/a	n/a	2.0	2.8760000000000003	Plaus/Plaus_run-01/stereo_PC47.wav	2.0	0	1.8670000000000002
72.256	5.669	SP_W	1.0	n/a	n/a	1.0	2.685	Plaus/Plaus_run-01/stereo_PW19.wav	1.0	1	1.679
77.92699999999998	7.9	SP_C	1.0	n/a	n/a	1.0	0.018000000000000002	Plaus/Plaus_run-01/CoM03l.wav	1.0	1	0.768
85.833	5.145	SP_I	2.0	n/a	n/a	1.0	3.042	Plaus/Plaus_run-01/stereo_PI09.wav	1.0	0	2.034
90.987	6.9170000000000025	SP_W	1.0	n/a	n/a	n/a	n/a	Plaus/Plaus_run-01/stereo_PW30.wav	n/a	0	n/a
97.909	5.738	SP_S	1.0	n/a	n/a	1.0	2.738	Plaus/Plaus_run-01/stereo_PC14.wav	1.0	1	1.567
103.647	6.276	SP_W	1.0	n/a	n/a	1.0	2.72	Plaus/Plaus_run-01/stereo_PW50.wav	1.0	1	1.8980000000000001
109.935	5.49	SP_C	1.0	n/a	n/a	1.0	3.136	Plaus/Plaus_run-01/CoM03d.wav	1.0	1	3.886
115.439	5.7	SP_I	2.0	n/a	n/a	2.0	3.279	Plaus/Plaus_run-01/stereo_PI67.wav	2.0	1	2.388
121.144	7.237	SP_S	1.0	n/a	n/a	1.0	4.21	Plaus/Plaus_run-01/stereo_PC68.wav	1.0	1	2.2439999999999998
128.38299999999998	6.49	SP_C	1.0	n/a	n/a	1.0	0.33299999999999996	Plaus/Plaus_run-01/CoM03b.wav	1.0	1	1.083
134.888	6.25	SP_W	1.0	n/a	n/a	1.0	3.424	Plaus/Plaus_run-01/stereo_PW61.wav	1.0	1	2.444
141.143	6.952999999999999	SP_I	2.0	n/a	n/a	1.0	3.634	Plaus/Plaus_run-01/stereo_PI32.wav	1.0	0	1.4689999999999999
148.09799999999996	7.085	SP_C	1.0	n/a	n/a	1.0	0.201	Plaus/Plaus_run-01/CoM02e.wav	1.0	1	0.9510000000000001
155.187	6.3610000000000015	SP_S	1.0	n/a	n/a	1.0	4.794	Plaus/Plaus_run-01/stereo_PC24.wav	1.0	1	2.5359999999999996
161.558	5.1110000000000015	SP_W	1.0	n/a	n/a	1.0	2.889	Plaus/Plaus_run-01/stereo_PW53.wav	1.0	1	1.875
166.679	6.2860000000000005	SP_I	2.0	n/a	n/a	2.0	3.693	Plaus/Plaus_run-01/stereo_PI42.wav	2.0	1	1.4970000000000003
172.967	6.577000000000001	SP_S	1.0	n/a	n/a	1.0	2.742	Plaus/Plaus_run-01/stereo_PC57.wav	1.0	1	1.547
179.55599999999995	5.273	SP_W	1.0	n/a	n/a	2.0	3.27	Plaus/Plaus_run-01/stereo_PW18.wav	2.0	0	2.1029999999999998
184.843	5.77	SP_C	1.0	1.0	0.677	1.0	1.788	Plaus/Plaus_run-01/CoM09b.wav	1.0	1	0.677
190.614	6.731	SP_S	1.0	n/a	n/a	1.0	3.818	Plaus/Plaus_run-01/stereo_PC26.wav	1.0	1	1.718
197.353	7.212999999999999	SP_I	2.0	n/a	n/a	2.0	3.7680000000000002	Plaus/Plaus_run-01/stereo_PI33.wav	2.0	1	1.7849999999999997
204.575	5.181	SP_S	1.0	n/a	n/a	1.0	2.7880000000000003	Plaus/Plaus_run-01/stereo_PC01.wav	1.0	1	1.8470000000000004
209.762	6.238	SP_S	1.0	n/a	n/a	1.0	3.94	Plaus/Plaus_run-01/stereo_PC36.wav	1.0	1	1.8939999999999997
216.001	7.73	SP_C	1.0	1.0	0.593	1.0	1.005	Plaus/Plaus_run-01/CoM10e.wav	1.0	1	0.593
223.74	6.843	SP_I	2.0	n/a	n/a	2.0	3.9160000000000004	Plaus/Plaus_run-01/stereo_PI45.wav	2.0	1	1.7890000000000001
230.595	6.101	SP_W	1.0	n/a	n/a	1.0	4.707	Plaus/Plaus_run-01/stereo_PW28.wav	1.0	1	2.7749999999999995
236.7	7.419	SP_W	1.0	n/a	n/a	1.0	4.181	Plaus/Plaus_run-01/stereo_PW86.wav	1.0	1	2.1450000000000005
244.122	6.54	SP_C	1.0	n/a	n/a	1.0	0.17	Plaus/Plaus_run-01/CoM05e.wav	1.0	1	0.92
250.677	6.247000000000001	SP_I	2.0	n/a	n/a	2.0	3.415	Plaus/Plaus_run-01/stereo_PI12.wav	2.0	1	2.544
