onset	duration	trial_type	correct	window1_response	window1_RT	window2_response	window2_RT	stim_file	calculated_response	calculated_accuracy	calculated_RT
1.084	7.034	SP_W	1.0	n/a	n/a	2.0	4.6160000000000005	Plaus/Plaus_run-01/stereo_PW85.wav	2.0	0	2.4690000000000003
8.123	5.641	SP_I	2.0	n/a	n/a	2.0	2.5980000000000003	Plaus/Plaus_run-01/stereo_PI11.wav	2.0	1	1.6780000000000002
13.778	6.77	SP_C	1.0	n/a	n/a	1.0	0.45	Plaus/Plaus_run-01/CoM08b.wav	1.0	1	1.2
20.55	7.327000000000001	SP_W	1.0	n/a	n/a	1.0	3.645	Plaus/Plaus_run-01/stereo_PW72.wav	1.0	1	1.665
27.889	6.145	SP_C	1.0	n/a	n/a	1.0	0.638	Plaus/Plaus_run-01/CoM05d.wav	1.0	1	1.3880000000000001
34.044000000000004	5.181	SP_I	2.0	n/a	n/a	2.0	2.763	Plaus/Plaus_run-01/stereo_PI65.wav	2.0	1	1.821
39.232	5.092	SP_S	1.0	n/a	n/a	2.0	2.677	Plaus/Plaus_run-01/stereo_PC13.wav	2.0	0	1.614
44.33600000000001	7.355	SP_C	1.0	n/a	n/a	1.0	0.562	Plaus/Plaus_run-01/CoM06l.wav	1.0	1	1.3119999999999998
51.692	7.47	SP_I	2.0	n/a	n/a	2.0	4.132	Plaus/Plaus_run-01/stereo_PI90.wav	2.0	1	1.961
59.164	7.399	SP_S	1.0	n/a	n/a	1.0	4.669	Plaus/Plaus_run-01/stereo_PC35.wav	1.0	1	2.402
66.57	5.685	SP_S	1.0	n/a	n/a	2.0	2.867	Plaus/Plaus_run-01/stereo_PC47.wav	2.0	0	1.858
72.258	5.669	SP_W	1.0	n/a	n/a	1.0	3.318	Plaus/Plaus_run-01/stereo_PW19.wav	1.0	1	2.3120000000000003
77.929	7.9	SP_C	1.0	n/a	n/a	1.0	1.253	Plaus/Plaus_run-01/CoM03l.wav	1.0	1	2.003
85.836	5.145	SP_I	2.0	n/a	n/a	2.0	3.057	Plaus/Plaus_run-01/stereo_PI09.wav	2.0	1	2.0490000000000004
90.99	6.9170000000000025	SP_W	1.0	n/a	n/a	2.0	4.224	Plaus/Plaus_run-01/stereo_PW30.wav	2.0	0	2.104
97.912	5.738	SP_S	1.0	n/a	n/a	1.0	3.926	Plaus/Plaus_run-01/stereo_PC14.wav	1.0	1	2.755
103.65	6.276	SP_W	1.0	n/a	n/a	1.0	2.769	Plaus/Plaus_run-01/stereo_PW50.wav	1.0	1	1.947
109.939	5.49	SP_C	1.0	n/a	n/a	1.0	0.921	Plaus/Plaus_run-01/CoM03d.wav	1.0	1	1.6709999999999998
115.443	5.7	SP_I	2.0	n/a	n/a	2.0	2.564	Plaus/Plaus_run-01/stereo_PI67.wav	2.0	1	1.6729999999999996
121.148	7.237	SP_S	1.0	n/a	n/a	2.0	3.829	Plaus/Plaus_run-01/stereo_PC68.wav	2.0	0	1.8629999999999995
128.387	6.49	SP_C	1.0	n/a	n/a	1.0	1.669	Plaus/Plaus_run-01/CoM03b.wav	1.0	1	2.419
134.892	6.25	SP_W	1.0	n/a	n/a	1.0	2.803	Plaus/Plaus_run-01/stereo_PW61.wav	1.0	1	1.8230000000000002
141.14700000000005	6.952999999999999	SP_I	2.0	n/a	n/a	2.0	4.138999999999999	Plaus/Plaus_run-01/stereo_PI32.wav	2.0	1	1.9739999999999984
148.10299999999995	7.085	SP_C	1.0	n/a	n/a	1.0	1.351	Plaus/Plaus_run-01/CoM02e.wav	1.0	1	2.101
155.192	6.3610000000000015	SP_S	1.0	n/a	n/a	1.0	3.895	Plaus/Plaus_run-01/stereo_PC24.wav	1.0	1	1.6369999999999998
161.564	5.1110000000000015	SP_W	1.0	n/a	n/a	2.0	2.9960000000000004	Plaus/Plaus_run-01/stereo_PW53.wav	2.0	0	1.9820000000000009
166.68400000000003	6.2860000000000005	SP_I	2.0	n/a	n/a	2.0	3.2510000000000003	Plaus/Plaus_run-01/stereo_PI42.wav	2.0	1	1.0550000000000006
172.97299999999996	6.577000000000001	SP_S	1.0	n/a	n/a	1.0	3.896	Plaus/Plaus_run-01/stereo_PC57.wav	1.0	1	2.7010000000000005
179.56099999999995	5.273	SP_W	1.0	n/a	n/a	1.0	4.015	Plaus/Plaus_run-01/stereo_PW18.wav	1.0	1	2.8480000000000003
184.849	5.77	SP_C	1.0	n/a	n/a	1.0	0.39	Plaus/Plaus_run-01/CoM09b.wav	1.0	1	1.14
190.62	6.731	SP_S	1.0	n/a	n/a	1.0	4.666	Plaus/Plaus_run-01/stereo_PC26.wav	1.0	1	2.5660000000000003
197.359	7.212999999999999	SP_I	2.0	n/a	n/a	2.0	4.008	Plaus/Plaus_run-01/stereo_PI33.wav	2.0	1	2.025
204.582	5.181	SP_S	1.0	n/a	n/a	1.0	2.781	Plaus/Plaus_run-01/stereo_PC01.wav	1.0	1	1.8400000000000003
209.769	6.238	SP_S	1.0	n/a	n/a	2.0	4.069	Plaus/Plaus_run-01/stereo_PC36.wav	2.0	0	2.023
216.007	7.73	SP_C	1.0	n/a	n/a	1.0	1.589	Plaus/Plaus_run-01/CoM10e.wav	1.0	1	2.339
223.747	6.843	SP_I	2.0	n/a	n/a	2.0	4.098	Plaus/Plaus_run-01/stereo_PI45.wav	2.0	1	1.9709999999999999
230.603	6.101	SP_W	1.0	n/a	n/a	1.0	3.621	Plaus/Plaus_run-01/stereo_PW28.wav	1.0	1	1.689
236.708	7.419	SP_W	1.0	n/a	n/a	1.0	3.639	Plaus/Plaus_run-01/stereo_PW86.wav	1.0	1	1.6030000000000002
244.13	6.54	SP_C	1.0	n/a	n/a	1.0	1.197	Plaus/Plaus_run-01/CoM05e.wav	1.0	1	1.9469999999999998
250.685	6.247000000000001	SP_I	2.0	n/a	n/a	2.0	2.439	Plaus/Plaus_run-01/stereo_PI12.wav	2.0	1	1.568
