onset	duration	trial_type	correct	window1_response	window1_RT	window2_response	window2_RT	stim_file	calculated_response	calculated_accuracy	calculated_RT
1.0918	4.2	S_U	2.0	n/a	n/a	2.0	1.876	Sem/Sem_run-01/stereo_1SU41A0.wav	2.0	1	1.626
5.2953	3.596	S_C	1.0	n/a	n/a	1.0	1.431	Sem/Sem_run-01/ContS29.wav	1.0	1	2.181
8.898	3.425	S_U	2.0	n/a	n/a	2.0	1.379	Sem/Sem_run-01/stereo_2SU87A0.wav	2.0	1	1.129
12.3338	3.933	S_H	1.0	n/a	n/a	1.0	1.7280000000000002	Sem/Sem_run-01/stereo_1SH13A0.wav	1.0	1	1.4780000000000002
16.2699	4.323	S_H	1.0	n/a	n/a	1.0	1.8259999999999998	Sem/Sem_run-01/stereo_1SH05A0.wav	1.0	1	1.576
20.6064	4.073	S_C	1.0	n/a	n/a	1.0	0.988	Sem/Sem_run-01/ContS31.wav	1.0	1	1.738
24.6927	3.869	S_L	1.0	n/a	n/a	1.0	2.322	Sem/Sem_run-01/stereo_2SL63A0.wav	1.0	1	2.072
28.5634	3.75	S_L	1.0	n/a	n/a	1.0	0.8370000000000001	Sem/Sem_run-01/stereo_1SL29A0.wav	1.0	1	0.5870000000000001
32.3161	4.3660000000000005	S_U	2.0	n/a	n/a	n/a	n/a	Sem/Sem_run-01/stereo_2SU78A0.wav	2.0	1	4.064
36.6859	3.3	S_L	1.0	2.0	0.698	1.0	1.105	Sem/Sem_run-01/stereo_1SL17A0.wav	1.0	1	0.855
39.9885	3.884	S_C	1.0	n/a	n/a	1.0	0.9740000000000001	Sem/Sem_run-01/ContS05.wav	1.0	1	1.724
43.8755	4.371	S_H	1.0	n/a	n/a	1.0	1.76	Sem/Sem_run-01/stereo_2SH58A0.wav	1.0	1	1.51
48.2606	4.329	S_L	1.0	n/a	n/a	1.0	2.5069999999999997	Sem/Sem_run-01/stereo_2SL72A0.wav	1.0	1	2.257
52.5971	3.94	S_H	1.0	n/a	n/a	1.0	1.272	Sem/Sem_run-01/stereo_2SH57A0.wav	1.0	1	1.022
56.55	4.2	S_U	2.0	n/a	n/a	2.0	2.483	Sem/Sem_run-01/stereo_2SU83A0.wav	2.0	1	2.233
60.753	3.474	S_C	1.0	n/a	n/a	1.0	2.283	Sem/Sem_run-01/ContS11.wav	1.0	1	3.033
64.2389	4.271	S_L	1.0	n/a	n/a	1.0	2.193	Sem/Sem_run-01/stereo_1SL26A0.wav	1.0	1	1.943
68.5248	3.91	S_L	1.0	n/a	n/a	n/a	n/a	Sem/Sem_run-01/stereo_1SL25A0.wav	n/a	0	n/a
72.4443	4.479	S_C	1.0	n/a	n/a	1.0	1.141	Sem/Sem_run-01/ContS25.wav	1.0	1	1.891
76.9309	3.378	S_U	2.0	n/a	n/a	2.0	1.429	Sem/Sem_run-01/stereo_2SU81A0.wav	2.0	1	1.179
80.3167	3.42	S_L	1.0	n/a	n/a	1.0	1.743	Sem/Sem_run-01/stereo_1SL27A0.wav	1.0	1	1.493
83.7479	4.3439999999999985	S_L	1.0	n/a	n/a	2.0	2.6660000000000004	Sem/Sem_run-01/stereo_1SL30A0.wav	2.0	0	2.4160000000000004
88.1008	3.909	S_L	1.0	1.0	0.10400000000000001	1.0	0.865	Sem/Sem_run-01/stereo_2SL71A0.wav	1.0	1	0.615
92.0205	3.867	S_H	1.0	1.0	0.267	1.0	0.909	Sem/Sem_run-01/stereo_1SH04A0.wav	1.0	1	0.659
95.8902	3.828	S_U	2.0	n/a	n/a	2.0	1.775	Sem/Sem_run-01/stereo_1SU37A0.wav	2.0	1	1.525
99.7264	4.565	S_C	1.0	n/a	n/a	1.0	1.632	Sem/Sem_run-01/ContS35.wav	1.0	1	2.3819999999999997
104.2964	3.3	S_U	2.0	n/a	n/a	n/a	n/a	Sem/Sem_run-01/stereo_1SU35A0.wav	n/a	0	n/a
107.5986	3.477	S_L	1.0	n/a	n/a	1.0	1.976	Sem/Sem_run-01/stereo_2SL65A0.wav	1.0	1	1.726
111.0845	3.83	S_H	1.0	n/a	n/a	1.0	1.556	Sem/Sem_run-01/stereo_1SH07A0.wav	1.0	1	1.306
114.9207	4.3439999999999985	S_C	1.0	n/a	n/a	1.0	0.524	Sem/Sem_run-01/ContS07.wav	1.0	1	1.274
119.2738	3.5	S_H	1.0	n/a	n/a	1.0	1.699	Sem/Sem_run-01/stereo_1SH03A0.wav	1.0	1	1.449
122.7765	3.919	S_U	2.0	n/a	n/a	2.0	1.545	Sem/Sem_run-01/stereo_1SU45A0.wav	2.0	1	1.295
126.697	3.5	S_H	1.0	n/a	n/a	1.0	2.283	Sem/Sem_run-01/stereo_1SH06A0.wav	1.0	1	2.033
130.1996	3.392	S_L	1.0	n/a	n/a	1.0	1.6269999999999998	Sem/Sem_run-01/stereo_2SL62A0.wav	1.0	1	1.3769999999999998
133.6021	3.54	S_C	1.0	n/a	n/a	1.0	2.063	Sem/Sem_run-01/ContS19.wav	1.0	1	2.813
137.1547	4.4	S_H	1.0	n/a	n/a	1.0	1.236	Sem/Sem_run-01/stereo_1SH15A0.wav	1.0	1	0.986
141.5578	3.342	S_H	1.0	n/a	n/a	n/a	n/a	Sem/Sem_run-01/stereo_1SH11A0.wav	n/a	0	n/a
144.9103	3.385	S_U	2.0	n/a	n/a	n/a	n/a	Sem/Sem_run-01/stereo_1SU44A0.wav	n/a	0	n/a
148.2972	3.4160000000000004	S_H	1.0	n/a	n/a	1.0	2.077	Sem/Sem_run-01/stereo_2SH56A0.wav	1.0	1	1.827
151.7164	3.849	S_U	2.0	n/a	n/a	2.0	2.077	Sem/Sem_run-01/stereo_2SU82A0.wav	2.0	1	1.827
155.5691	3.934	S_C	1.0	n/a	n/a	1.0	1.881	Sem/Sem_run-01/ContS13.wav	1.0	1	2.6310000000000002
159.506	4.309	S_L	1.0	n/a	n/a	1.0	1.169	Sem/Sem_run-01/stereo_2SL64A0.wav	1.0	1	0.919
163.8257	4.413	S_C	1.0	n/a	n/a	1.0	0.12300000000000001	Sem/Sem_run-01/ContS17.wav	1.0	1	0.873
168.2456	4.2	S_U	2.0	n/a	n/a	2.0	1.568	Sem/Sem_run-01/stereo_2SU90A0.wav	2.0	1	1.318
172.4489	3.846	S_U	2.0	n/a	n/a	2.0	2.395	Sem/Sem_run-01/stereo_2SU88A0.wav	2.0	1	2.145
176.3017	3.3939999999999997	S_C	1.0	n/a	n/a	1.0	1.9709999999999999	Sem/Sem_run-01/ContS01.wav	1.0	1	2.721
179.7041	4.013	S_C	1.0	n/a	n/a	1.0	2.34	Sem/Sem_run-01/ContS23.wav	1.0	1	3.09
183.7237	4.227	S_H	1.0	n/a	n/a	1.0	1.669	Sem/Sem_run-01/stereo_1SH08A0.wav	1.0	1	1.419
