onset	duration	trial_type	correct	window1_response	window1_RT	window2_response	window2_RT	stim_file	calculated_response	calculated_accuracy	calculated_RT
1.0964	7.034	SP_W	1.0	n/a	n/a	1.0	4.513	Plaus/Plaus_run-01/stereo_PW85.wav	1.0	1	2.3659999999999997
8.1359	5.641	SP_I	2.0	n/a	n/a	2.0	2.78	Plaus/Plaus_run-01/stereo_PI11.wav	2.0	1	1.8599999999999997
13.79	6.77	SP_C	1.0	n/a	n/a	1.0	0.354	Plaus/Plaus_run-01/CoM08b.wav	1.0	1	1.104
20.5628	7.327000000000001	SP_W	1.0	n/a	n/a	1.0	4.345	Plaus/Plaus_run-01/stereo_PW72.wav	1.0	1	2.3649999999999998
27.9014	6.145	SP_C	1.0	n/a	n/a	1.0	0.35600000000000004	Plaus/Plaus_run-01/CoM05d.wav	1.0	1	1.106
34.0559	5.181	SP_I	2.0	n/a	n/a	2.0	2.8160000000000003	Plaus/Plaus_run-01/stereo_PI65.wav	2.0	1	1.874
39.243	5.092	SP_S	1.0	n/a	n/a	2.0	3.612	Plaus/Plaus_run-01/stereo_PC13.wav	2.0	0	2.549
44.3468	7.355	SP_C	1.0	n/a	n/a	1.0	0.664	Plaus/Plaus_run-01/CoM06l.wav	1.0	1	1.4140000000000001
51.7032	7.47	SP_I	2.0	n/a	n/a	2.0	4.171	Plaus/Plaus_run-01/stereo_PI90.wav	2.0	1	2.0000000000000004
59.1764	7.399	SP_S	1.0	n/a	n/a	2.0	4.06	Plaus/Plaus_run-01/stereo_PC35.wav	2.0	0	1.7929999999999997
66.5818	5.685	SP_S	1.0	n/a	n/a	1.0	3.4210000000000003	Plaus/Plaus_run-01/stereo_PC47.wav	1.0	1	2.412
72.2704	5.669	SP_W	1.0	n/a	n/a	1.0	3.925	Plaus/Plaus_run-01/stereo_PW19.wav	1.0	1	2.9189999999999996
77.9423	7.9	SP_C	1.0	n/a	n/a	1.0	0.807	Plaus/Plaus_run-01/CoM03l.wav	1.0	1	1.557
85.8483	5.145	SP_I	2.0	n/a	n/a	2.0	3.8080000000000003	Plaus/Plaus_run-01/stereo_PI09.wav	2.0	1	2.8
91.0021	6.9170000000000025	SP_W	1.0	n/a	n/a	1.0	3.845	Plaus/Plaus_run-01/stereo_PW30.wav	1.0	1	1.725
97.9243	5.738	SP_S	1.0	n/a	n/a	1.0	2.82	Plaus/Plaus_run-01/stereo_PC14.wav	1.0	1	1.6489999999999998
103.6662	6.276	SP_W	1.0	n/a	n/a	2.0	3.162	Plaus/Plaus_run-01/stereo_PW50.wav	2.0	0	2.34
109.954	5.49	SP_C	1.0	n/a	n/a	1.0	1.808	Plaus/Plaus_run-01/CoM03d.wav	1.0	1	2.558
115.458	5.7	SP_I	2.0	n/a	n/a	2.0	3.694	Plaus/Plaus_run-01/stereo_PI67.wav	2.0	1	2.803
121.1625	7.237	SP_S	1.0	n/a	n/a	2.0	3.48	Plaus/Plaus_run-01/stereo_PC68.wav	2.0	0	1.5139999999999998
128.4022	6.49	SP_C	1.0	n/a	n/a	1.0	0.256	Plaus/Plaus_run-01/CoM03b.wav	1.0	1	1.006
134.9065	6.25	SP_W	1.0	n/a	n/a	1.0	3.3289999999999997	Plaus/Plaus_run-01/stereo_PW61.wav	1.0	1	2.349
141.161	6.952999999999999	SP_I	2.0	n/a	n/a	2.0	4.4430000000000005	Plaus/Plaus_run-01/stereo_PI32.wav	2.0	1	2.2780000000000005
148.1173	7.085	SP_C	1.0	n/a	n/a	1.0	0.541	Plaus/Plaus_run-01/CoM02e.wav	1.0	1	1.291
155.2068	6.3610000000000015	SP_S	1.0	n/a	n/a	1.0	4.668	Plaus/Plaus_run-01/stereo_PC24.wav	1.0	1	2.41
161.5781	5.1110000000000015	SP_W	1.0	n/a	n/a	1.0	2.506	Plaus/Plaus_run-01/stereo_PW53.wav	1.0	1	1.492
166.6985	6.2860000000000005	SP_I	2.0	n/a	n/a	2.0	3.775	Plaus/Plaus_run-01/stereo_PI42.wav	2.0	1	1.5790000000000002
172.9876	6.577000000000001	SP_S	1.0	n/a	n/a	1.0	3.284	Plaus/Plaus_run-01/stereo_PC57.wav	1.0	1	2.0889999999999995
179.5757	5.273	SP_W	1.0	n/a	n/a	1.0	3.21	Plaus/Plaus_run-01/stereo_PW18.wav	1.0	1	2.043
184.8629	5.77	SP_C	1.0	n/a	n/a	1.0	0.128	Plaus/Plaus_run-01/CoM09b.wav	1.0	1	0.878
190.6348	6.731	SP_S	1.0	n/a	n/a	1.0	3.385	Plaus/Plaus_run-01/stereo_PC26.wav	1.0	1	1.2849999999999997
197.3731	7.212999999999999	SP_I	2.0	n/a	n/a	2.0	3.9130000000000003	Plaus/Plaus_run-01/stereo_PI33.wav	2.0	1	1.9299999999999997
204.595	5.181	SP_S	1.0	n/a	n/a	n/a	n/a	Plaus/Plaus_run-01/stereo_PC01.wav	1.0	1	3.6030000000000006
209.7821	6.238	SP_S	1.0	1.0	0.113	1.0	3.697	Plaus/Plaus_run-01/stereo_PC36.wav	1.0	1	1.6509999999999998
216.0211	7.73	SP_C	1.0	n/a	n/a	1.0	0.62	Plaus/Plaus_run-01/CoM10e.wav	1.0	1	1.37
223.7601	6.843	SP_I	2.0	n/a	n/a	2.0	4.667	Plaus/Plaus_run-01/stereo_PI45.wav	2.0	1	2.54
230.615	6.101	SP_W	1.0	n/a	n/a	1.0	3.628	Plaus/Plaus_run-01/stereo_PW28.wav	1.0	1	1.6959999999999997
236.7206	7.419	SP_W	1.0	n/a	n/a	n/a	n/a	Plaus/Plaus_run-01/stereo_PW86.wav	n/a	0	n/a
244.1438	6.54	SP_C	1.0	1.0	0.284	1.0	0.56	Plaus/Plaus_run-01/CoM05e.wav	1.0	1	0.284
250.6981	6.247000000000001	SP_I	2.0	n/a	n/a	2.0	3.0380000000000003	Plaus/Plaus_run-01/stereo_PI12.wav	2.0	1	2.1670000000000003
