onset	duration	trial_type	correct	window1_response	window1_RT	window2_response	window2_RT	stim_file	calculated_response	calculated_accuracy	calculated_RT
1.0934	7.632999999999999	G_P	2.0	n/a	n/a	2.0	4.845	Gram/Gram_run-02/stereo_1MP45U4.wav	2.0	1	2.7139999999999995
8.7323	7.315	G_F	2.0	n/a	n/a	1.0	4.466	Gram/Gram_run-02/stereo_1MF20U4.wav	1.0	0	3.756
16.0543	6.2829999999999995	G_P	2.0	n/a	n/a	2.0	4.091	Gram/Gram_run-02/stereo_1MP34U2.wav	2.0	1	2.999
22.3421	6.195	G_C	1.0	n/a	n/a	1.0	0.504	Gram/Gram_run-02/CoM06d.wav	1.0	1	1.254
28.5465	6.221	G_G	1.0	n/a	n/a	n/a	n/a	Gram/Gram_run-02/stereo_1MF02G1.wav	n/a	0	n/a
34.769	5.801	G_F	2.0	n/a	n/a	2.0	3.9419999999999997	Gram/Gram_run-02/stereo_2MF64U3.wav	2.0	1	4.692
40.5743	6.78	G_C	1.0	n/a	n/a	1.0	0.462	Gram/Gram_run-02/CoM07l.wav	1.0	1	1.212
47.3625	6.084	G_F	2.0	n/a	n/a	2.0	3.516	Gram/Gram_run-02/stereo_2MF56U2.wav	2.0	1	4.266
53.4512	7.5470000000000015	G_F	2.0	n/a	n/a	1.0	4.655	Gram/Gram_run-02/stereo_1MF21U4.wav	1.0	0	3.904
61.0065	6.482	G_G	1.0	n/a	n/a	1.0	4.043	Gram/Gram_run-02/stereo_1MF24G4.wav	1.0	1	1.6820000000000004
67.4946	6.7810000000000015	G_P	2.0	n/a	n/a	2.0	4.655	Gram/Gram_run-02/stereo_2MP76U1.wav	2.0	1	2.3930000000000007
74.2828	6.643	G_P	2.0	n/a	n/a	2.0	3.7760000000000002	Gram/Gram_run-02/stereo_2MP80U2.wav	2.0	1	2.82
80.9376	7.69	G_C	1.0	1.0	0.737	1.0	3.5460000000000003	Gram/Gram_run-02/CoM06e.wav	1.0	1	0.737
88.639	6.352	G_F	2.0	n/a	n/a	1.0	3.557	Gram/Gram_run-02/stereo_2MF63U3.wav	1.0	0	4.307
94.9947	5.801	G_G	1.0	n/a	n/a	2.0	4.007	Gram/Gram_run-02/stereo_1MF18G3.wav	2.0	0	2.6239999999999997
100.8001	7.1129999999999995	G_P	2.0	n/a	n/a	1.0	5.601	Gram/Gram_run-02/stereo_1MP44U4.wav	1.0	0	3.2439999999999998
107.9218	6.78	G_C	1.0	n/a	n/a	1.0	0.04	Gram/Gram_run-02/CoM05b.wav	1.0	1	0.79
114.7101	6.7360000000000015	G_F	2.0	n/a	n/a	2.0	2.719	Gram/Gram_run-02/stereo_2MF58U2.wav	2.0	1	3.469
121.4494	6.0889999999999995	G_P	2.0	n/a	n/a	2.0	4.265	Gram/Gram_run-02/stereo_2MP87U3.wav	2.0	1	3.053
127.5529	7.6370000000000005	G_P	2.0	n/a	n/a	1.0	4.571000000000001	Gram/Gram_run-02/stereo_2MP73U1.wav	1.0	0	2.5440000000000014
135.1929	7.305	G_C	1.0	n/a	n/a	1.0	1.452	Gram/Gram_run-02/CoM02l.wav	1.0	1	2.202
142.4994	5.983	G_G	1.0	n/a	n/a	2.0	3.485	Gram/Gram_run-02/stereo_1MP42G3.wav	2.0	0	2.5629999999999997
148.4871	5.36	G_P	2.0	n/a	n/a	2.0	3.109	Gram/Gram_run-02/stereo_1MP32U2.wav	2.0	1	2.1029999999999998
153.8576	7.145	G_C	1.0	n/a	n/a	1.0	1.079	Gram/Gram_run-02/CoM09e.wav	1.0	1	1.829
161.0128	6.28	G_F	2.0	n/a	n/a	2.0	4.051	Gram/Gram_run-02/stereo_1MF19U4.wav	2.0	1	3.365
167.3005	6.63	G_C	1.0	n/a	n/a	1.0	0.611	Gram/Gram_run-02/CoM07b.wav	1.0	1	1.361
173.9386	7.195	G_G	1.0	n/a	n/a	1.0	4.331	Gram/Gram_run-02/stereo_2MP89G3.wav	1.0	1	2.9930000000000003
181.1437	5.1739999999999995	G_F	2.0	n/a	n/a	2.0	3.22	Gram/Gram_run-02/stereo_1MF07U2.wav	2.0	1	3.97
186.3308	6.944	G_P	2.0	n/a	n/a	2.0	3.528	Gram/Gram_run-02/stereo_2MP88U3.wav	2.0	1	2.4850000000000003
193.2858	6.0889999999999995	G_G	1.0	n/a	n/a	1.0	2.918	Gram/Gram_run-02/stereo_2MF66G3.wav	1.0	1	1.5440000000000005
199.3896	6.5	G_C	1.0	n/a	n/a	1.0	0.509	Gram/Gram_run-02/CoM01e.wav	1.0	1	1.259
205.8946	6.43	G_P	2.0	n/a	n/a	1.0	4.835	Gram/Gram_run-02/stereo_1MP43U4.wav	1.0	0	2.553
212.3325	6.19	G_G	1.0	n/a	n/a	2.0	3.358	Gram/Gram_run-02/stereo_2MP84G2.wav	2.0	0	2.426
218.537	7.114	G_G	1.0	n/a	n/a	1.0	4.449	Gram/Gram_run-02/stereo_1MP29G1.wav	1.0	1	2.2609999999999997
225.6587	6.731	G_F	2.0	n/a	n/a	2.0	4.907	Gram/Gram_run-02/stereo_2MF53U1.wav	2.0	1	4.336
232.3969	6.015	G_C	1.0	n/a	n/a	1.0	1.5619999999999998	Gram/Gram_run-02/CoM02d.wav	1.0	1	2.312
238.4179	7.17	G_G	1.0	n/a	n/a	2.0	4.519	Gram/Gram_run-02/stereo_2MF71G4.wav	2.0	0	2.2699999999999996
245.5909	5.33	G_C	1.0	n/a	n/a	1.0	1.15	Gram/Gram_run-02/CoM06b.wav	1.0	1	1.9
250.9316	6.9689999999999985	G_F	2.0	n/a	n/a	1.0	4.396	Gram/Gram_run-02/stereo_2MF54U1.wav	1.0	0	3.826
257.9045	7.6	G_G	1.0	n/a	n/a	2.0	4.064	Gram/Gram_run-02/stereo_2MF49G1.wav	2.0	0	1.875
