onset	duration	trial_type	correct	window1_response	window1_RT	window2_response	window2_RT	stim_file	calculated_response	calculated_accuracy	calculated_RT
1.0918	4.2	S_U	2.0	n/a	n/a	2.0	1.53	Sem/Sem_run-01/stereo_1SU41A0.wav	2.0	1	1.28
5.2953	3.596	S_C	1.0	1.0	0.7340000000000001	1.0	1.038	Sem/Sem_run-01/ContS29.wav	1.0	1	0.7340000000000001
8.898	3.425	S_U	2.0	n/a	n/a	2.0	1.7209999999999999	Sem/Sem_run-01/stereo_2SU87A0.wav	2.0	1	1.471
12.3338	3.933	S_H	1.0	n/a	n/a	1.0	1.5	Sem/Sem_run-01/stereo_1SH13A0.wav	1.0	1	1.25
16.2699	4.323	S_H	1.0	n/a	n/a	1.0	1.925	Sem/Sem_run-01/stereo_1SH05A0.wav	1.0	1	1.675
20.6064	4.073	S_C	1.0	n/a	n/a	1.0	0.449	Sem/Sem_run-01/ContS31.wav	1.0	1	1.199
24.6927	3.869	S_L	1.0	n/a	n/a	1.0	1.557	Sem/Sem_run-01/stereo_2SL63A0.wav	1.0	1	1.307
28.5634	3.75	S_L	1.0	n/a	n/a	1.0	2.123	Sem/Sem_run-01/stereo_1SL29A0.wav	1.0	1	1.8730000000000002
32.3161	4.3660000000000005	S_U	2.0	n/a	n/a	2.0	1.401	Sem/Sem_run-01/stereo_2SU78A0.wav	2.0	1	1.151
36.6859	3.3	S_L	1.0	n/a	n/a	1.0	1.207	Sem/Sem_run-01/stereo_1SL17A0.wav	1.0	1	0.9570000000000001
39.9885	3.884	S_C	1.0	n/a	n/a	1.0	0.16	Sem/Sem_run-01/ContS05.wav	1.0	1	0.91
43.8755	4.371	S_H	1.0	n/a	n/a	1.0	1.057	Sem/Sem_run-01/stereo_2SH58A0.wav	1.0	1	0.8069999999999999
48.2606	4.329	S_L	1.0	n/a	n/a	1.0	1.359	Sem/Sem_run-01/stereo_2SL72A0.wav	1.0	1	1.109
52.5971	3.94	S_H	1.0	n/a	n/a	1.0	1.3330000000000002	Sem/Sem_run-01/stereo_2SH57A0.wav	1.0	1	1.0830000000000002
56.55	4.2	S_U	2.0	n/a	n/a	2.0	1.304	Sem/Sem_run-01/stereo_2SU83A0.wav	2.0	1	1.054
60.753	3.474	S_C	1.0	n/a	n/a	1.0	0.693	Sem/Sem_run-01/ContS11.wav	1.0	1	1.443
64.2389	4.271	S_L	1.0	n/a	n/a	1.0	1.798	Sem/Sem_run-01/stereo_1SL26A0.wav	1.0	1	1.548
68.5248	3.91	S_L	1.0	n/a	n/a	1.0	1.6980000000000002	Sem/Sem_run-01/stereo_1SL25A0.wav	1.0	1	1.4480000000000002
72.4443	4.479	S_C	1.0	n/a	n/a	1.0	0.285	Sem/Sem_run-01/ContS25.wav	1.0	1	1.035
76.9309	3.378	S_U	2.0	n/a	n/a	2.0	1.8869999999999998	Sem/Sem_run-01/stereo_2SU81A0.wav	2.0	1	1.637
80.3167	3.42	S_L	1.0	n/a	n/a	1.0	1.405	Sem/Sem_run-01/stereo_1SL27A0.wav	1.0	1	1.155
83.7479	4.3439999999999985	S_L	1.0	n/a	n/a	2.0	2.7030000000000003	Sem/Sem_run-01/stereo_1SL30A0.wav	2.0	0	2.4530000000000003
88.1008	3.909	S_L	1.0	n/a	n/a	1.0	1.255	Sem/Sem_run-01/stereo_2SL71A0.wav	1.0	1	1.005
92.0205	3.867	S_H	1.0	n/a	n/a	1.0	2.202	Sem/Sem_run-01/stereo_1SH04A0.wav	1.0	1	1.952
95.8902	3.828	S_U	2.0	n/a	n/a	2.0	1.666	Sem/Sem_run-01/stereo_1SU37A0.wav	2.0	1	1.416
99.7264	4.565	S_C	1.0	n/a	n/a	1.0	0.65	Sem/Sem_run-01/ContS35.wav	1.0	1	1.4
104.2964	3.3	S_U	2.0	n/a	n/a	2.0	1.446	Sem/Sem_run-01/stereo_1SU35A0.wav	2.0	1	1.196
107.5986	3.477	S_L	1.0	n/a	n/a	2.0	1.794	Sem/Sem_run-01/stereo_2SL65A0.wav	2.0	0	1.544
111.0845	3.83	S_H	1.0	n/a	n/a	1.0	1.526	Sem/Sem_run-01/stereo_1SH07A0.wav	1.0	1	1.276
114.9207	4.3439999999999985	S_C	1.0	n/a	n/a	1.0	0.3	Sem/Sem_run-01/ContS07.wav	1.0	1	1.05
119.2738	3.5	S_H	1.0	n/a	n/a	1.0	1.225	Sem/Sem_run-01/stereo_1SH03A0.wav	1.0	1	0.9750000000000001
122.7765	3.919	S_U	2.0	n/a	n/a	2.0	1.47	Sem/Sem_run-01/stereo_1SU45A0.wav	2.0	1	1.22
126.697	3.5	S_H	1.0	n/a	n/a	1.0	1.075	Sem/Sem_run-01/stereo_1SH06A0.wav	1.0	1	0.825
130.1996	3.392	S_L	1.0	n/a	n/a	n/a	n/a	Sem/Sem_run-01/stereo_2SL62A0.wav	n/a	0	n/a
133.6021	3.54	S_C	1.0	2.0	0.34700000000000003	1.0	0.857	Sem/Sem_run-01/ContS19.wav	2.0	0	0.34700000000000003
137.1547	4.4	S_H	1.0	n/a	n/a	1.0	1.912	Sem/Sem_run-01/stereo_1SH15A0.wav	1.0	1	1.662
141.5578	3.342	S_H	1.0	n/a	n/a	1.0	1.159	Sem/Sem_run-01/stereo_1SH11A0.wav	1.0	1	0.909
144.9103	3.385	S_U	2.0	n/a	n/a	1.0	1.693	Sem/Sem_run-01/stereo_1SU44A0.wav	1.0	0	1.443
148.2972	3.4160000000000004	S_H	1.0	n/a	n/a	2.0	1.1179999999999999	Sem/Sem_run-01/stereo_2SH56A0.wav	2.0	0	0.8680000000000001
151.7164	3.849	S_U	2.0	n/a	n/a	2.0	2.383	Sem/Sem_run-01/stereo_2SU82A0.wav	2.0	1	2.133
155.5691	3.934	S_C	1.0	1.0	0.6709999999999999	1.0	0.503	Sem/Sem_run-01/ContS13.wav	1.0	1	0.6709999999999999
159.506	4.309	S_L	1.0	n/a	n/a	1.0	1.225	Sem/Sem_run-01/stereo_2SL64A0.wav	1.0	1	0.9750000000000001
163.8257	4.413	S_C	1.0	n/a	n/a	1.0	0.13699999999999998	Sem/Sem_run-01/ContS17.wav	1.0	1	0.887
168.2456	4.2	S_U	2.0	n/a	n/a	1.0	2.171	Sem/Sem_run-01/stereo_2SU90A0.wav	1.0	0	1.9209999999999998
172.4489	3.846	S_U	2.0	n/a	n/a	2.0	1.248	Sem/Sem_run-01/stereo_2SU88A0.wav	2.0	1	0.998
176.3017	3.3939999999999997	S_C	1.0	n/a	n/a	1.0	0.49	Sem/Sem_run-01/ContS01.wav	1.0	1	1.24
179.7041	4.013	S_C	1.0	1.0	0.695	1.0	0.371	Sem/Sem_run-01/ContS23.wav	1.0	1	0.695
183.7237	4.227	S_H	1.0	n/a	n/a	2.0	1.3869999999999998	Sem/Sem_run-01/stereo_1SH08A0.wav	2.0	0	1.1369999999999998
