onset	duration	trial_type	correct	window1_response	window1_RT	window2_response	window2_RT	stim_file	calculated_response	calculated_accuracy	calculated_RT
1.084	6.895	G_F	2.0	n/a	n/a	2.0	2.97	Gram/Gram_run-01/stereo_2MF57U2.wav	2.0	1	3.72
7.99	7.175	G_F	2.0	n/a	n/a	2.0	3.003	Gram/Gram_run-01/stereo_1MF15U3.wav	2.0	1	3.753
15.179	6.5070000000000014	G_G	1.0	n/a	n/a	1.0	3.1910000000000003	Gram/Gram_run-01/stereo_1MF11G2.wav	1.0	1	2.011
21.701	6.505	G_C	1.0	1.0	0.6559999999999999	1.0	1.4680000000000002	Gram/Gram_run-01/CoM09d.wav	1.0	1	0.6559999999999999
28.206	6.9479999999999995	G_F	2.0	n/a	n/a	2.0	4.03	Gram/Gram_run-01/stereo_2MF68U4.wav	2.0	1	3.3040000000000003
35.162	5.541	G_P	2.0	n/a	n/a	2.0	2.8710000000000004	Gram/Gram_run-01/stereo_1MP37U3.wav	2.0	1	1.8360000000000003
40.716	5.9479999999999995	G_G	1.0	n/a	n/a	1.0	4.0680000000000005	Gram/Gram_run-01/stereo_2MF50G1.wav	1.0	1	1.9730000000000008
46.67100000000001	6.013	G_F	2.0	n/a	n/a	2.0	3.878	Gram/Gram_run-01/stereo_1MF05U1.wav	2.0	1	3.2760000000000002
52.69300000000001	7.87	G_C	1.0	1.0	0.555	1.0	0.908	Gram/Gram_run-01/CoM01l.wav	1.0	1	0.555
60.566	6.4979999999999976	G_G	1.0	n/a	n/a	1.0	4.061	Gram/Gram_run-01/stereo_1MF23G4.wav	1.0	1	1.88
67.071	6.184	G_F	2.0	n/a	n/a	1.0	3.219	Gram/Gram_run-01/stereo_2MF55U2.wav	1.0	0	3.969
73.259	6.83	G_C	1.0	1.0	0.625	1.0	1.05	Gram/Gram_run-01/CoM10l.wav	1.0	1	0.625
80.098	7.505	G_G	1.0	n/a	n/a	1.0	6.312	Gram/Gram_run-01/stereo_2MP96G4.wav	1.0	1	3.9170000000000007
87.604	7.1370000000000005	G_G	1.0	n/a	n/a	2.0	4.881	Gram/Gram_run-01/stereo_1MP47G4.wav	2.0	0	2.4140000000000006
94.743	6.694	G_F	2.0	n/a	n/a	2.0	3.045	Gram/Gram_run-01/stereo_2MF61U3.wav	2.0	1	3.795
101.449	5.39	G_C	1.0	1.0	0.6970000000000001	1.0	1.5619999999999998	Gram/Gram_run-01/CoM01d.wav	1.0	1	0.6970000000000001
106.853	6.5760000000000005	G_G	1.0	n/a	n/a	1.0	3.074	Gram/Gram_run-01/stereo_1MP35G2.wav	1.0	1	2.07
113.442	5.3389999999999995	G_F	2.0	n/a	n/a	2.0	3.944	Gram/Gram_run-01/stereo_2MF69U4.wav	2.0	1	3.2060000000000004
118.796	7.94	G_C	1.0	n/a	n/a	1.0	0.039	Gram/Gram_run-01/CoM08l.wav	1.0	1	0.789
126.736	6.006	G_P	2.0	n/a	n/a	2.0	3.885	Gram/Gram_run-01/stereo_1MP26U1.wav	2.0	1	1.9089999999999998
132.757	8.422	G_F	2.0	n/a	n/a	2.0	4.747	Gram/Gram_run-01/stereo_1MF06U1.wav	2.0	1	4.151999999999999
141.181	7.885	G_P	2.0	n/a	n/a	2.0	3.18	Gram/Gram_run-01/stereo_2MP81U2.wav	2.0	1	2.295
149.07	6.1270000000000024	G_G	1.0	n/a	n/a	1.0	3.517	Gram/Gram_run-01/stereo_2MP83G2.wav	1.0	1	2.457
155.209	5.765	G_C	1.0	1.0	0.495	1.0	1.246	Gram/Gram_run-01/CoM02b.wav	1.0	1	0.495
160.98	6.706	G_P	2.0	n/a	n/a	2.0	4.805	Gram/Gram_run-01/stereo_2MP93U4.wav	2.0	1	2.4050000000000002
167.702	6.61	G_P	2.0	n/a	n/a	1.0	4.191	Gram/Gram_run-01/stereo_1MP28U1.wav	1.0	0	2.0760000000000005
174.324	6.63	G_C	1.0	n/a	n/a	1.0	0.13699999999999998	Gram/Gram_run-01/CoM04b.wav	1.0	1	0.887
180.963	5.665	G_P	2.0	n/a	n/a	2.0	4.044	Gram/Gram_run-01/stereo_1MP27U1.wav	2.0	1	2.042
186.634	7.55	G_G	1.0	n/a	n/a	1.0	3.916	Gram/Gram_run-01/stereo_2MP77G1.wav	1.0	1	1.8169999999999997
194.19	6.51	G_C	1.0	1.0	0.635	1.0	1.011	Gram/Gram_run-01/CoM03e.wav	1.0	1	0.635
200.712	6.98	G_P	2.0	n/a	n/a	2.0	4.67	Gram/Gram_run-01/stereo_2MP92U4.wav	2.0	1	2.3209999999999997
207.701	7.047999999999999	G_G	1.0	n/a	n/a	1.0	3.731	Gram/Gram_run-01/stereo_1MF12G2.wav	1.0	1	2.697
214.757	5.574	G_F	2.0	n/a	n/a	2.0	4.333	Gram/Gram_run-01/stereo_1MF04U1.wav	2.0	1	3.745
220.344	5.67	G_C	1.0	1.0	0.7	1.0	1.406	Gram/Gram_run-01/CoM07d.wav	1.0	1	0.7
226.016	6.6160000000000005	G_P	2.0	n/a	n/a	2.0	3.063	Gram/Gram_run-01/stereo_1MP39U3.wav	2.0	1	2.059
232.638	5.695	G_P	2.0	n/a	n/a	2.0	3.516	Gram/Gram_run-01/stereo_2MP82U2.wav	2.0	1	2.595
238.342	6.6270000000000024	G_F	2.0	n/a	n/a	2.0	2.815	Gram/Gram_run-01/stereo_1MF13U3.wav	2.0	1	3.565
244.981	7.145	G_C	1.0	1.0	0.46799999999999997	1.0	0.6729999999999999	Gram/Gram_run-01/CoM08e.wav	1.0	1	0.468
252.137	6.805	G_G	1.0	n/a	n/a	1.0	4.051	Gram/Gram_run-01/stereo_1MP41G3.wav	1.0	1	2.745
258.942	7.519	G_P	2.0	n/a	n/a	2.0	3.2710000000000004	Gram/Gram_run-01/stereo_1MP38U3.wav	2.0	1	2.032
