onset	duration	trial_type	correct	window1_response	window1_RT	window2_response	window2_RT	stim_file	calculated_response	calculated_accuracy	calculated_RT
1.101	7.034	SP_W	1.0	n/a	n/a	1.0	3.508	Plaus/Plaus_run-01/stereo_PW85.wav	1.0	1	1.3609999999999998
8.14	5.641	SP_I	2.0	n/a	n/a	2.0	2.439	Plaus/Plaus_run-01/stereo_PI11.wav	2.0	1	1.519
13.794	6.77	SP_C	1.0	n/a	n/a	1.0	1.075	Plaus/Plaus_run-01/CoM08b.wav	1.0	1	1.825
20.566	7.327000000000001	SP_W	1.0	n/a	n/a	1.0	3.406	Plaus/Plaus_run-01/stereo_PW72.wav	1.0	1	1.4260000000000002
27.905	6.145	SP_C	1.0	n/a	n/a	n/a	n/a	Plaus/Plaus_run-01/CoM05d.wav	n/a	0	n/a
34.06	5.181	SP_I	2.0	n/a	n/a	2.0	2.645	Plaus/Plaus_run-01/stereo_PI65.wav	2.0	1	1.7029999999999998
39.247	5.092	SP_S	1.0	n/a	n/a	1.0	2.761	Plaus/Plaus_run-01/stereo_PC13.wav	1.0	1	1.698
44.351000000000006	7.355	SP_C	1.0	n/a	n/a	1.0	1.361	Plaus/Plaus_run-01/CoM06l.wav	1.0	1	2.1109999999999998
51.707	7.47	SP_I	2.0	n/a	n/a	2.0	4.135	Plaus/Plaus_run-01/stereo_PI90.wav	2.0	1	1.964
59.18	7.399	SP_S	1.0	n/a	n/a	1.0	3.679	Plaus/Plaus_run-01/stereo_PC35.wav	1.0	1	1.412
66.585	5.685	SP_S	1.0	n/a	n/a	1.0	2.908	Plaus/Plaus_run-01/stereo_PC47.wav	1.0	1	1.8989999999999998
72.273	5.669	SP_W	1.0	n/a	n/a	1.0	2.325	Plaus/Plaus_run-01/stereo_PW19.wav	1.0	1	1.3190000000000002
77.944	7.9	SP_C	1.0	n/a	n/a	1.0	0.151	Plaus/Plaus_run-01/CoM03l.wav	1.0	1	0.901
85.85	5.145	SP_I	2.0	n/a	n/a	n/a	n/a	Plaus/Plaus_run-01/stereo_PI09.wav	n/a	0	n/a
91.004	6.9170000000000025	SP_W	1.0	n/a	n/a	1.0	3.661	Plaus/Plaus_run-01/stereo_PW30.wav	1.0	1	1.541
97.926	5.738	SP_S	1.0	n/a	n/a	1.0	2.233	Plaus/Plaus_run-01/stereo_PC14.wav	1.0	1	1.062
103.664	6.276	SP_W	1.0	n/a	n/a	1.0	3.4330000000000003	Plaus/Plaus_run-01/stereo_PW50.wav	1.0	1	2.611
109.953	5.49	SP_C	1.0	n/a	n/a	1.0	3.1180000000000003	Plaus/Plaus_run-01/CoM03d.wav	1.0	1	3.8680000000000003
115.457	5.7	SP_I	2.0	n/a	n/a	1.0	1.895	Plaus/Plaus_run-01/stereo_PI67.wav	1.0	0	1.004
121.161	7.237	SP_S	1.0	n/a	n/a	1.0	3.6839999999999997	Plaus/Plaus_run-01/stereo_PC68.wav	1.0	1	1.718
128.4	6.49	SP_C	1.0	n/a	n/a	1.0	1.578	Plaus/Plaus_run-01/CoM03b.wav	1.0	1	2.3280000000000003
134.905	6.25	SP_W	1.0	n/a	n/a	1.0	2.45	Plaus/Plaus_run-01/stereo_PW61.wav	1.0	1	1.4700000000000002
141.16	6.952999999999999	SP_I	2.0	n/a	n/a	2.0	3.563	Plaus/Plaus_run-01/stereo_PI32.wav	2.0	1	1.3980000000000001
148.116	7.085	SP_C	1.0	n/a	n/a	1.0	0.5660000000000001	Plaus/Plaus_run-01/CoM02e.wav	1.0	1	1.316
155.204	6.3610000000000015	SP_S	1.0	n/a	n/a	1.0	3.4530000000000003	Plaus/Plaus_run-01/stereo_PC24.wav	1.0	1	1.1950000000000003
161.576	5.1110000000000015	SP_W	1.0	n/a	n/a	1.0	2.066	Plaus/Plaus_run-01/stereo_PW53.wav	1.0	1	1.052
166.697	6.2860000000000005	SP_I	2.0	n/a	n/a	1.0	3.322	Plaus/Plaus_run-01/stereo_PI42.wav	1.0	0	1.1260000000000003
172.985	6.577000000000001	SP_S	1.0	n/a	n/a	1.0	2.4459999999999997	Plaus/Plaus_run-01/stereo_PC57.wav	1.0	1	1.2510000000000001
179.57299999999995	5.273	SP_W	1.0	n/a	n/a	2.0	2.531	Plaus/Plaus_run-01/stereo_PW18.wav	2.0	0	1.364
184.861	5.77	SP_C	1.0	n/a	n/a	1.0	0.087	Plaus/Plaus_run-01/CoM09b.wav	1.0	1	0.837
190.632	6.731	SP_S	1.0	n/a	n/a	1.0	3.1919999999999997	Plaus/Plaus_run-01/stereo_PC26.wav	1.0	1	1.092
197.371	7.212999999999999	SP_I	2.0	n/a	n/a	1.0	3.108	Plaus/Plaus_run-01/stereo_PI33.wav	1.0	0	1.125
204.593	5.181	SP_S	1.0	n/a	n/a	1.0	2.075	Plaus/Plaus_run-01/stereo_PC01.wav	1.0	1	1.1340000000000003
209.78	6.238	SP_S	1.0	n/a	n/a	1.0	2.958	Plaus/Plaus_run-01/stereo_PC36.wav	1.0	1	0.9119999999999999
216.019	7.73	SP_C	1.0	n/a	n/a	1.0	0.146	Plaus/Plaus_run-01/CoM10e.wav	1.0	1	0.896
223.758	6.843	SP_I	2.0	n/a	n/a	1.0	3.1519999999999997	Plaus/Plaus_run-01/stereo_PI45.wav	1.0	0	1.0250000000000004
230.613	6.101	SP_W	1.0	n/a	n/a	1.0	3.115	Plaus/Plaus_run-01/stereo_PW28.wav	1.0	1	1.1829999999999998
236.718	7.419	SP_W	1.0	n/a	n/a	1.0	3.403	Plaus/Plaus_run-01/stereo_PW86.wav	1.0	1	1.3670000000000004
244.14	6.54	SP_C	1.0	1.0	0.6409999999999999	1.0	0.201	Plaus/Plaus_run-01/CoM05e.wav	1.0	1	0.6409999999999999
250.696	6.247000000000001	SP_I	2.0	n/a	n/a	1.0	2.589	Plaus/Plaus_run-01/stereo_PI12.wav	1.0	0	1.718
