onset	duration	trial_type	correct	window1_response	window1_RT	window2_response	window2_RT	stim_file	calculated_response	calculated_accuracy	calculated_RT
1.0918	4.2	S_U	2.0	n/a	n/a	2.0	2.388	Sem/Sem_run-01/stereo_1SU41A0.wav	2.0	1	2.138
5.2953	3.596	S_C	1.0	n/a	n/a	1.0	1.273	Sem/Sem_run-01/ContS29.wav	1.0	1	2.023
8.898	3.425	S_U	2.0	n/a	n/a	2.0	2.158	Sem/Sem_run-01/stereo_2SU87A0.wav	2.0	1	1.908
12.3338	3.933	S_H	1.0	n/a	n/a	1.0	1.7519999999999998	Sem/Sem_run-01/stereo_1SH13A0.wav	1.0	1	1.5019999999999998
16.2699	4.323	S_H	1.0	n/a	n/a	1.0	2.059	Sem/Sem_run-01/stereo_1SH05A0.wav	1.0	1	1.8090000000000002
20.6064	4.073	S_C	1.0	n/a	n/a	1.0	0.203	Sem/Sem_run-01/ContS31.wav	1.0	1	0.953
24.6927	3.869	S_L	1.0	n/a	n/a	1.0	1.4169999999999998	Sem/Sem_run-01/stereo_2SL63A0.wav	1.0	1	1.1669999999999998
28.5634	3.75	S_L	1.0	n/a	n/a	1.0	1.5659999999999998	Sem/Sem_run-01/stereo_1SL29A0.wav	1.0	1	1.3159999999999998
32.3161	4.3660000000000005	S_U	2.0	n/a	n/a	2.0	1.4669999999999999	Sem/Sem_run-01/stereo_2SU78A0.wav	2.0	1	1.217
36.6859	3.3	S_L	1.0	n/a	n/a	1.0	1.956	Sem/Sem_run-01/stereo_1SL17A0.wav	1.0	1	1.706
39.9885	3.884	S_C	1.0	n/a	n/a	1.0	1.139	Sem/Sem_run-01/ContS05.wav	1.0	1	1.889
43.8755	4.371	S_H	1.0	n/a	n/a	1.0	2.3569999999999998	Sem/Sem_run-01/stereo_2SH58A0.wav	1.0	1	2.107
48.2606	4.329	S_L	1.0	n/a	n/a	1.0	1.724	Sem/Sem_run-01/stereo_2SL72A0.wav	1.0	1	1.474
52.5971	3.94	S_H	1.0	n/a	n/a	1.0	2.392	Sem/Sem_run-01/stereo_2SH57A0.wav	1.0	1	2.142
56.55	4.2	S_U	2.0	n/a	n/a	2.0	1.624	Sem/Sem_run-01/stereo_2SU83A0.wav	2.0	1	1.374
60.753	3.474	S_C	1.0	n/a	n/a	1.0	0.43799999999999994	Sem/Sem_run-01/ContS11.wav	1.0	1	1.188
64.2389	4.271	S_L	1.0	n/a	n/a	1.0	2.384	Sem/Sem_run-01/stereo_1SL26A0.wav	1.0	1	2.134
68.5248	3.91	S_L	1.0	n/a	n/a	1.0	2.6060000000000003	Sem/Sem_run-01/stereo_1SL25A0.wav	1.0	1	2.3560000000000003
72.4443	4.479	S_C	1.0	n/a	n/a	1.0	0.9279999999999999	Sem/Sem_run-01/ContS25.wav	1.0	1	1.6780000000000002
76.9309	3.378	S_U	2.0	n/a	n/a	2.0	2.002	Sem/Sem_run-01/stereo_2SU81A0.wav	2.0	1	1.7519999999999998
80.3167	3.42	S_L	1.0	n/a	n/a	1.0	1.705	Sem/Sem_run-01/stereo_1SL27A0.wav	1.0	1	1.455
83.7479	4.3439999999999985	S_L	1.0	n/a	n/a	1.0	2.327	Sem/Sem_run-01/stereo_1SL30A0.wav	1.0	1	2.077
88.1008	3.909	S_L	1.0	n/a	n/a	1.0	1.955	Sem/Sem_run-01/stereo_2SL71A0.wav	1.0	1	1.705
92.0205	3.867	S_H	1.0	n/a	n/a	1.0	2.662	Sem/Sem_run-01/stereo_1SH04A0.wav	1.0	1	2.412
95.8902	3.828	S_U	2.0	n/a	n/a	2.0	1.304	Sem/Sem_run-01/stereo_1SU37A0.wav	2.0	1	1.054
99.7264	4.565	S_C	1.0	n/a	n/a	1.0	0.7340000000000001	Sem/Sem_run-01/ContS35.wav	1.0	1	1.484
104.2964	3.3	S_U	2.0	n/a	n/a	2.0	1.844	Sem/Sem_run-01/stereo_1SU35A0.wav	2.0	1	1.594
107.5986	3.477	S_L	1.0	n/a	n/a	1.0	1.9380000000000002	Sem/Sem_run-01/stereo_2SL65A0.wav	1.0	1	1.6880000000000002
111.0845	3.83	S_H	1.0	n/a	n/a	1.0	2.441	Sem/Sem_run-01/stereo_1SH07A0.wav	1.0	1	2.191
114.9207	4.3439999999999985	S_C	1.0	n/a	n/a	1.0	1.736	Sem/Sem_run-01/ContS07.wav	1.0	1	2.4859999999999998
119.2738	3.5	S_H	1.0	n/a	n/a	1.0	1.771	Sem/Sem_run-01/stereo_1SH03A0.wav	1.0	1	1.521
122.7765	3.919	S_U	2.0	n/a	n/a	2.0	1.537	Sem/Sem_run-01/stereo_1SU45A0.wav	2.0	1	1.287
126.697	3.5	S_H	1.0	n/a	n/a	1.0	1.6980000000000002	Sem/Sem_run-01/stereo_1SH06A0.wav	1.0	1	1.4480000000000002
130.1996	3.392	S_L	1.0	n/a	n/a	1.0	2.055	Sem/Sem_run-01/stereo_2SL62A0.wav	1.0	1	1.805
133.6021	3.54	S_C	1.0	n/a	n/a	1.0	0.977	Sem/Sem_run-01/ContS19.wav	1.0	1	1.7269999999999999
137.1547	4.4	S_H	1.0	n/a	n/a	1.0	1.615	Sem/Sem_run-01/stereo_1SH15A0.wav	1.0	1	1.365
141.5578	3.342	S_H	1.0	n/a	n/a	n/a	n/a	Sem/Sem_run-01/stereo_1SH11A0.wav	1.0	1	2.801
144.9103	3.385	S_U	2.0	1.0	0.45899999999999996	2.0	1.837	Sem/Sem_run-01/stereo_1SU44A0.wav	2.0	1	1.587
148.2972	3.4160000000000004	S_H	1.0	n/a	n/a	1.0	1.081	Sem/Sem_run-01/stereo_2SH56A0.wav	1.0	1	0.831
151.7164	3.849	S_U	2.0	n/a	n/a	2.0	1.6669999999999998	Sem/Sem_run-01/stereo_2SU82A0.wav	2.0	1	1.4169999999999998
155.5691	3.934	S_C	1.0	n/a	n/a	1.0	1.105	Sem/Sem_run-01/ContS13.wav	1.0	1	1.855
159.506	4.309	S_L	1.0	n/a	n/a	1.0	1.6	Sem/Sem_run-01/stereo_2SL64A0.wav	1.0	1	1.35
163.8257	4.413	S_C	1.0	n/a	n/a	1.0	1.158	Sem/Sem_run-01/ContS17.wav	1.0	1	1.908
168.2456	4.2	S_U	2.0	n/a	n/a	2.0	2.173	Sem/Sem_run-01/stereo_2SU90A0.wav	2.0	1	1.923
172.4489	3.846	S_U	2.0	n/a	n/a	2.0	2.144	Sem/Sem_run-01/stereo_2SU88A0.wav	2.0	1	1.8940000000000001
176.3017	3.3939999999999997	S_C	1.0	n/a	n/a	1.0	0.925	Sem/Sem_run-01/ContS01.wav	1.0	1	1.675
179.7041	4.013	S_C	1.0	n/a	n/a	1.0	1.068	Sem/Sem_run-01/ContS23.wav	1.0	1	1.818
183.7237	4.227	S_H	1.0	n/a	n/a	1.0	2.053	Sem/Sem_run-01/stereo_1SH08A0.wav	1.0	1	1.803
