onset	duration	trial_type	correct	window1_response	window1_RT	window2_response	window2_RT	stim_file	calculated_response	calculated_accuracy	calculated_RT
1.0907	4.2010000000000005	S_U	2.0	n/a	n/a	2.0	1.311	Sem/Sem_run-02/stereo_1SU33A0.wav	2.0	1	1.061
5.2947	3.486	S_U	2.0	n/a	n/a	2.0	1.4169999999999998	Sem/Sem_run-02/stereo_2SU85A0.wav	2.0	1	1.1669999999999998
8.7817	3.8539999999999996	S_H	1.0	n/a	n/a	1.0	1.5719999999999998	Sem/Sem_run-02/stereo_2SH50A0.wav	1.0	1	1.3219999999999998
12.6503	3.454	S_C	1.0	n/a	n/a	1.0	0.387	Sem/Sem_run-02/ContS08.wav	1.0	1	1.137
16.1195	4.33	S_H	1.0	n/a	n/a	2.0	1.6980000000000002	Sem/Sem_run-02/stereo_1SH10A0.wav	2.0	0	1.4480000000000002
20.4559	3.872	S_L	1.0	n/a	n/a	1.0	1.833	Sem/Sem_run-02/stereo_2SL61A0.wav	1.0	1	1.583
24.3421	3.885	S_L	1.0	n/a	n/a	1.0	1.67	Sem/Sem_run-02/stereo_1SL23A0.wav	1.0	1	1.42
28.2293	4.2	S_U	2.0	n/a	n/a	2.0	1.396	Sem/Sem_run-02/stereo_1SU42A0.wav	2.0	1	1.146
32.4326	3.321	S_L	1.0	n/a	n/a	1.0	1.356	Sem/Sem_run-02/stereo_1SL16A0.wav	1.0	1	1.106
35.7684	3.59	S_C	1.0	n/a	n/a	1.0	0.451	Sem/Sem_run-02/ContS26.wav	1.0	1	1.201
39.3711	4.4	S_H	1.0	n/a	n/a	1.0	1.883	Sem/Sem_run-02/stereo_2SH60A0.wav	1.0	1	1.633
43.7745	4.311	S_L	1.0	n/a	n/a	2.0	1.386	Sem/Sem_run-02/stereo_2SL75A0.wav	2.0	0	1.136
48.0943	3.912	S_H	1.0	n/a	n/a	1.0	1.861	Sem/Sem_run-02/stereo_2SH59A0.wav	1.0	1	1.611
52.0138	4.4	S_U	2.0	n/a	n/a	2.0	1.182	Sem/Sem_run-02/stereo_2SU84A0.wav	2.0	1	0.9319999999999999
56.4171	3.4210000000000003	S_U	2.0	n/a	n/a	2.0	1.199	Sem/Sem_run-02/stereo_1SU43A0.wav	2.0	1	0.9490000000000001
59.8529	3.8539999999999996	S_C	1.0	n/a	n/a	1.0	0.901	Sem/Sem_run-02/ContS02.wav	1.0	1	1.651
63.7217	4.37	S_L	1.0	n/a	n/a	1.0	1.7180000000000002	Sem/Sem_run-02/stereo_1SL19A0.wav	1.0	1	1.4680000000000002
68.0927	3.862	S_L	1.0	n/a	n/a	1.0	1.7519999999999998	Sem/Sem_run-02/stereo_1SL18A0.wav	1.0	1	1.5019999999999998
71.9622	4.462	S_C	1.0	n/a	n/a	1.0	0.948	Sem/Sem_run-02/ContS22.wav	1.0	1	1.698
76.4321	3.406	S_L	1.0	1.0	0.028999999999999998	1.0	1.518	Sem/Sem_run-02/stereo_1SL21A0.wav	1.0	1	1.268
79.8515	3.355	S_U	2.0	n/a	n/a	1.0	1.857	Sem/Sem_run-02/stereo_1SU36A0.wav	1.0	0	1.607
83.2206	4.324	S_C	1.0	n/a	n/a	1.0	1.336	Sem/Sem_run-02/ContS04.wav	1.0	1	2.0860000000000003
87.5571	4.253	S_L	1.0	n/a	n/a	2.0	1.983	Sem/Sem_run-02/stereo_1SL24A0.wav	2.0	0	1.733
91.8112	3.839	S_L	1.0	n/a	n/a	1.0	1.76	Sem/Sem_run-02/stereo_2SL70A0.wav	1.0	1	1.51
95.664	4.395	S_C	1.0	n/a	n/a	1.0	0.39	Sem/Sem_run-02/ContS14.wav	1.0	1	1.1400000000000001
100.0673	3.8739999999999997	S_H	1.0	1.0	0.113	1.0	1.178	Sem/Sem_run-02/stereo_1SH09A0.wav	1.0	1	0.9279999999999999
103.9534	3.75	S_U	2.0	n/a	n/a	2.0	1.453	Sem/Sem_run-02/stereo_1SU32A0.wav	2.0	1	1.203
107.7063	3.641	S_C	1.0	n/a	n/a	1.0	0.242	Sem/Sem_run-02/ContS34.wav	1.0	1	0.992
111.359	3.338	S_U	2.0	1.0	0.35600000000000004	1.0	0.231	Sem/Sem_run-02/stereo_1SU31A0.wav	n/a	0	n/a
114.7114	3.45	S_L	1.0	n/a	n/a	1.0	1.587	Sem/Sem_run-02/stereo_2SL68A0.wav	1.0	1	1.337
118.164	3.8510000000000004	S_H	1.0	n/a	n/a	1.0	1.03	Sem/Sem_run-02/stereo_1SH14A0.wav	1.0	1	0.78
122.0178	3.459	S_H	1.0	n/a	n/a	1.0	1.376	Sem/Sem_run-02/stereo_1SH01A0.wav	1.0	1	1.126
125.4869	3.512	S_C	1.0	n/a	n/a	1.0	0.214	Sem/Sem_run-02/ContS16.wav	1.0	1	0.964
129.0062	3.489	S_H	1.0	1.0	0.49200000000000005	1.0	1.614	Sem/Sem_run-02/stereo_1SH12A0.wav	1.0	1	1.364
132.5087	3.8489999999999998	S_U	2.0	n/a	n/a	2.0	1.306	Sem/Sem_run-02/stereo_2SU86A0.wav	2.0	1	1.056
136.3616	3.46	S_L	1.0	n/a	n/a	1.0	1.415	Sem/Sem_run-02/stereo_1SL28A0.wav	1.0	1	1.165
139.8308	4.53	S_C	1.0	n/a	n/a	1.0	1.0590000000000002	Sem/Sem_run-02/ContS32.wav	1.0	1	1.8090000000000002
144.3674	4.351	S_H	1.0	n/a	n/a	1.0	1.809	Sem/Sem_run-02/stereo_2SH52A0.wav	1.0	1	1.559
148.7216	3.48	S_H	1.0	n/a	n/a	1.0	1.5419999999999998	Sem/Sem_run-02/stereo_2SH47A0.wav	1.0	1	1.2919999999999998
152.2075	3.3	S_H	1.0	n/a	n/a	1.0	1.49	Sem/Sem_run-02/stereo_2SH53A0.wav	1.0	1	1.24
155.5099	3.847	S_U	2.0	n/a	n/a	2.0	1.789	Sem/Sem_run-02/stereo_1SU39A0.wav	2.0	1	1.539
159.3627	3.923	S_C	1.0	n/a	n/a	1.0	0.353	Sem/Sem_run-02/ContS10.wav	1.0	1	1.103
163.2989	3.7510000000000003	S_U	2.0	1.0	0.10099999999999999	2.0	1.52	Sem/Sem_run-02/stereo_2SU80A0.wav	2.0	1	1.27
167.0527	4.2	S_L	1.0	n/a	n/a	1.0	1.494	Sem/Sem_run-02/stereo_2SL66A0.wav	1.0	1	1.244
171.2559	3.99	S_C	1.0	n/a	n/a	1.0	0.617	Sem/Sem_run-02/ContS20.wav	1.0	1	1.367
175.2588	4.041	S_C	1.0	1.0	0.226	1.0	0.037000000000000005	Sem/Sem_run-02/ContS28.wav	1.0	1	0.226
179.3117	4.2	S_U	2.0	n/a	n/a	2.0	2.236	Sem/Sem_run-02/stereo_2SU89A0.wav	2.0	1	1.9860000000000002
183.5149	4.368	S_H	1.0	n/a	n/a	2.0	1.31	Sem/Sem_run-02/stereo_2SH46A0.wav	2.0	0	1.06
