onset	duration	trial_type	correct	window1_response	window1_RT	window2_response	window2_RT	stim_file	calculated_response	calculated_accuracy	calculated_RT
1.084	4.2	S_U	2.0	n/a	n/a	2.0	1.53	Sem/Sem_run-01/stereo_1SU41A0.wav	2.0	1	1.28
5.287000000000001	3.596	S_C	1.0	n/a	n/a	1.0	0.489	Sem/Sem_run-01/ContS29.wav	1.0	1	1.2389999999999999
8.89	3.425	S_U	2.0	n/a	n/a	2.0	2.002	Sem/Sem_run-01/stereo_2SU87A0.wav	2.0	1	1.7519999999999998
12.325999999999999	3.933	S_H	1.0	n/a	n/a	1.0	1.463	Sem/Sem_run-01/stereo_1SH13A0.wav	1.0	1	1.213
16.262	4.323	S_H	1.0	n/a	n/a	1.0	1.37	Sem/Sem_run-01/stereo_1SH05A0.wav	1.0	1	1.12
20.599	4.073	S_C	1.0	1.0	0.713	1.0	0.858	Sem/Sem_run-01/ContS31.wav	1.0	1	0.713
24.685	3.869	S_L	1.0	n/a	n/a	1.0	1.412	Sem/Sem_run-01/stereo_2SL63A0.wav	1.0	1	1.162
28.555	3.75	S_L	1.0	n/a	n/a	1.0	2.187	Sem/Sem_run-01/stereo_1SL29A0.wav	1.0	1	1.9369999999999998
32.308	4.3660000000000005	S_U	2.0	n/a	n/a	2.0	1.6969999999999998	Sem/Sem_run-01/stereo_2SU78A0.wav	2.0	1	1.4469999999999998
36.678000000000004	3.3	S_L	1.0	n/a	n/a	2.0	1.359	Sem/Sem_run-01/stereo_1SL17A0.wav	2.0	0	1.109
39.981	3.884	S_C	1.0	n/a	n/a	1.0	0.5660000000000001	Sem/Sem_run-01/ContS05.wav	1.0	1	1.316
43.867	4.371	S_H	1.0	n/a	n/a	1.0	1.391	Sem/Sem_run-01/stereo_2SH58A0.wav	1.0	1	1.141
48.254	4.329	S_L	1.0	n/a	n/a	1.0	1.556	Sem/Sem_run-01/stereo_2SL72A0.wav	1.0	1	1.306
52.59	3.94	S_H	1.0	n/a	n/a	1.0	1.531	Sem/Sem_run-01/stereo_2SH57A0.wav	1.0	1	1.281
56.543	4.2	S_U	2.0	n/a	n/a	2.0	1.4909999999999999	Sem/Sem_run-01/stereo_2SU83A0.wav	2.0	1	1.241
60.746	3.474	S_C	1.0	n/a	n/a	1.0	0.657	Sem/Sem_run-01/ContS11.wav	1.0	1	1.407
64.233	4.271	S_L	1.0	n/a	n/a	1.0	1.561	Sem/Sem_run-01/stereo_1SL26A0.wav	1.0	1	1.311
68.51899999999999	3.91	S_L	1.0	n/a	n/a	1.0	1.692	Sem/Sem_run-01/stereo_1SL25A0.wav	1.0	1	1.442
72.439	4.479	S_C	1.0	n/a	n/a	1.0	0.276	Sem/Sem_run-01/ContS25.wav	1.0	1	1.026
76.926	3.378	S_U	2.0	n/a	n/a	2.0	1.672	Sem/Sem_run-01/stereo_2SU81A0.wav	2.0	1	1.422
80.312	3.42	S_L	1.0	n/a	n/a	1.0	1.449	Sem/Sem_run-01/stereo_1SL27A0.wav	1.0	1	1.199
83.74799999999998	4.3439999999999985	S_L	1.0	n/a	n/a	1.0	1.32	Sem/Sem_run-01/stereo_1SL30A0.wav	1.0	1	1.07
88.101	3.909	S_L	1.0	n/a	n/a	1.0	1.546	Sem/Sem_run-01/stereo_2SL71A0.wav	1.0	1	1.296
92.021	3.867	S_H	1.0	n/a	n/a	1.0	1.4909999999999999	Sem/Sem_run-01/stereo_1SH04A0.wav	1.0	1	1.241
95.89	3.828	S_U	2.0	n/a	n/a	2.0	1.495	Sem/Sem_run-01/stereo_1SU37A0.wav	2.0	1	1.245
99.727	4.565	S_C	1.0	n/a	n/a	1.0	0.644	Sem/Sem_run-01/ContS35.wav	1.0	1	1.3940000000000001
104.29700000000001	3.3	S_U	2.0	n/a	n/a	n/a	n/a	Sem/Sem_run-01/stereo_1SU35A0.wav	2.0	1	2.9029999999999996
107.59899999999999	3.477	S_L	1.0	2.0	0.603	n/a	n/a	Sem/Sem_run-01/stereo_2SL65A0.wav	n/a	0	n/a
111.085	3.83	S_H	1.0	n/a	n/a	1.0	1.145	Sem/Sem_run-01/stereo_1SH07A0.wav	1.0	1	0.895
114.92200000000001	4.3439999999999985	S_C	1.0	n/a	n/a	1.0	0.38299999999999995	Sem/Sem_run-01/ContS07.wav	1.0	1	1.133
119.275	3.5	S_H	1.0	n/a	n/a	1.0	1.375	Sem/Sem_run-01/stereo_1SH03A0.wav	1.0	1	1.125
122.77799999999999	3.919	S_U	2.0	n/a	n/a	2.0	1.7209999999999999	Sem/Sem_run-01/stereo_1SU45A0.wav	2.0	1	1.471
126.697	3.5	S_H	1.0	n/a	n/a	1.0	1.175	Sem/Sem_run-01/stereo_1SH06A0.wav	1.0	1	0.925
130.2	3.392	S_L	1.0	n/a	n/a	1.0	1.4069999999999998	Sem/Sem_run-01/stereo_2SL62A0.wav	1.0	1	1.1569999999999998
133.60299999999998	3.54	S_C	1.0	n/a	n/a	1.0	0.456	Sem/Sem_run-01/ContS19.wav	1.0	1	1.206
137.155	4.4	S_H	1.0	n/a	n/a	1.0	1.4669999999999999	Sem/Sem_run-01/stereo_1SH15A0.wav	1.0	1	1.217
141.559	3.342	S_H	1.0	n/a	n/a	1.0	1.598	Sem/Sem_run-01/stereo_1SH11A0.wav	1.0	1	1.348
144.911	3.385	S_U	2.0	n/a	n/a	2.0	1.625	Sem/Sem_run-01/stereo_1SU44A0.wav	2.0	1	1.375
148.297	3.4160000000000004	S_H	1.0	n/a	n/a	1.0	1.215	Sem/Sem_run-01/stereo_2SH56A0.wav	1.0	1	0.9650000000000001
151.717	3.849	S_U	2.0	n/a	n/a	2.0	1.7930000000000001	Sem/Sem_run-01/stereo_2SU82A0.wav	2.0	1	1.543
155.57	3.934	S_C	1.0	n/a	n/a	1.0	1.571	Sem/Sem_run-01/ContS13.wav	1.0	1	2.3209999999999997
159.506	4.309	S_L	1.0	n/a	n/a	1.0	1.097	Sem/Sem_run-01/stereo_2SL64A0.wav	1.0	1	0.847
163.826	4.413	S_C	1.0	n/a	n/a	1.0	1.08	Sem/Sem_run-01/ContS17.wav	1.0	1	1.83
168.24599999999995	4.2	S_U	2.0	n/a	n/a	2.0	2.0	Sem/Sem_run-01/stereo_2SU90A0.wav	2.0	1	1.75
172.449	3.846	S_U	2.0	n/a	n/a	2.0	1.79	Sem/Sem_run-01/stereo_2SU88A0.wav	2.0	1	1.54
176.30200000000005	3.3939999999999997	S_C	1.0	n/a	n/a	1.0	0.385	Sem/Sem_run-01/ContS01.wav	1.0	1	1.135
179.705	4.013	S_C	1.0	n/a	n/a	1.0	0.305	Sem/Sem_run-01/ContS23.wav	1.0	1	1.055
183.725	4.227	S_H	1.0	n/a	n/a	1.0	1.335	Sem/Sem_run-01/stereo_1SH08A0.wav	1.0	1	1.085
