onset	duration	trial_type	correct	window1_response	window1_RT	window2_response	window2_RT	stim_file	calculated_response	calculated_accuracy	calculated_RT
1.101	3.5	P_R	1.0	n/a	n/a	1.0	1.415	Phon/Phon_run-02/stereo_PR20.wav	1.0	1	1.165
4.604	4.235	P_O	1.0	n/a	n/a	2.0	1.196	Phon/Phon_run-02/PC034.wav	2.0	0	0.946
8.841000000000003	3.375	P_R	1.0	n/a	n/a	1.0	1.315	Phon/Phon_run-02/stereo_PR13.wav	1.0	1	1.065
12.227	3.474	P_C	1.0	n/a	n/a	1.0	0.223	Phon/Phon_run-02/ContS12.wav	1.0	1	0.973
15.713	3.875	P_U	2.0	n/a	n/a	2.0	1.795	Phon/Phon_run-02/PM025.wav	2.0	1	1.545
19.599	3.726	P_R	1.0	n/a	n/a	1.0	1.614	Phon/Phon_run-02/stereo_PR22.wav	1.0	1	1.364
23.335	3.451	P_O	1.0	n/a	n/a	2.0	1.455	Phon/Phon_run-02/PC014.wav	2.0	0	1.205
26.788	3.779	P_C	1.0	n/a	n/a	1.0	0.305	Phon/Phon_run-02/ContS02.wav	1.0	1	1.055
30.574	3.821	P_U	2.0	n/a	n/a	1.0	1.7519999999999998	Phon/Phon_run-02/stereo_PU18.wav	1.0	0	1.5019999999999998
34.41	3.49	P_U	2.0	n/a	n/a	2.0	1.508	Phon/Phon_run-02/stereo_PU12.wav	2.0	1	1.258
37.913000000000004	4.38	P_C	1.0	n/a	n/a	1.0	0.539	Phon/Phon_run-02/ContS32.wav	1.0	1	1.2890000000000001
42.3	4.0969999999999995	P_R	1.0	n/a	n/a	2.0	1.2570000000000001	Phon/Phon_run-02/stereo_PR16.wav	2.0	0	1.007
46.403	3.5	P_O	1.0	n/a	n/a	1.0	1.271	Phon/Phon_run-02/PC022.wav	1.0	1	1.021
49.90600000000001	4.0760000000000005	P_R	1.0	n/a	n/a	2.0	1.284	Phon/Phon_run-02/stereo_PR08.wav	2.0	0	1.034
53.992	3.5	P_O	1.0	n/a	n/a	2.0	1.355	Phon/Phon_run-02/PC028.wav	2.0	0	1.105
57.495	3.5	P_U	2.0	n/a	n/a	2.0	2.287	Phon/Phon_run-02/stereo_PU27.wav	2.0	1	2.037
60.997	3.819	P_C	1.0	n/a	n/a	n/a	n/a	Phon/Phon_run-02/ContS06.wav	n/a	0	n/a
64.817	4.25	P_O	1.0	n/a	n/a	2.0	1.0979999999999999	Phon/Phon_run-02/PC031.wav	2.0	0	0.8480000000000001
69.07	3.662	P_C	1.0	n/a	n/a	1.0	0.273	Phon/Phon_run-02/ContS36.wav	1.0	1	1.0230000000000001
72.74	3.823	P_O	1.0	n/a	n/a	1.0	1.242	Phon/Phon_run-02/PC023.wav	1.0	1	0.992
76.57600000000002	4.323	P_C	1.0	n/a	n/a	1.0	0.11699999999999999	Phon/Phon_run-02/ContS24.wav	1.0	1	0.867
80.913	3.865	P_U	2.0	n/a	n/a	2.0	1.712	Phon/Phon_run-02/PM004.wav	2.0	1	1.462
84.78200000000002	3.875	P_O	1.0	n/a	n/a	1.0	1.757	Phon/Phon_run-02/PC007.wav	1.0	1	1.507
88.669	4.25	P_U	2.0	n/a	n/a	2.0	1.868	Phon/Phon_run-02/PM011.wav	2.0	1	1.618
92.92200000000001	4.362	P_C	1.0	n/a	n/a	n/a	n/a	Phon/Phon_run-02/ContS30.wav	n/a	0	n/a
97.292	3.875	P_O	1.0	n/a	n/a	n/a	n/a	Phon/Phon_run-02/PC030.wav	n/a	0	n/a
101.178	3.3360000000000003	P_R	1.0	n/a	n/a	1.0	1.5019999999999998	Phon/Phon_run-02/stereo_PR05.wav	1.0	1	1.2519999999999998
104.514	4.113	P_U	2.0	n/a	n/a	1.0	1.571	Phon/Phon_run-02/stereo_PU01.wav	1.0	0	1.321
108.634	4.1739999999999995	P_U	2.0	n/a	n/a	2.0	1.2990000000000002	Phon/Phon_run-02/PM029.wav	2.0	1	1.0490000000000002
112.821	3.4539999999999997	P_C	1.0	n/a	n/a	n/a	n/a	Phon/Phon_run-02/ContS08.wav	n/a	0	n/a
116.29	3.446	P_R	1.0	n/a	n/a	1.0	1.774	Phon/Phon_run-02/stereo_PR30.wav	1.0	1	1.524
119.743	3.85	P_R	1.0	n/a	n/a	1.0	1.237	Phon/Phon_run-02/stereo_PR07.wav	1.0	1	0.9870000000000001
123.596	3.438	P_U	2.0	n/a	n/a	2.0	1.206	Phon/Phon_run-02/stereo_PU02.wav	2.0	1	0.956
127.04799999999999	3.915	P_C	1.0	n/a	n/a	1.0	0.318	Phon/Phon_run-02/ContS20.wav	1.0	1	1.068
130.968	3.487	P_U	2.0	n/a	n/a	2.0	1.2329999999999999	Phon/Phon_run-02/PM021.wav	2.0	1	0.9830000000000001
134.471	3.965	P_C	1.0	n/a	n/a	1.0	0.485	Phon/Phon_run-02/ContS26.wav	1.0	1	1.2349999999999999
138.44	3.792	P_R	1.0	n/a	n/a	2.0	1.217	Phon/Phon_run-02/stereo_PR31.wav	2.0	0	0.9670000000000001
142.243	4.135	P_O	1.0	n/a	n/a	1.0	2.396	Phon/Phon_run-02/PC024.wav	1.0	1	2.146
146.38	3.875	P_U	2.0	n/a	n/a	2.0	2.428	Phon/Phon_run-02/PM010.wav	2.0	1	2.178
150.266	3.875	P_O	1.0	n/a	n/a	1.0	1.264	Phon/Phon_run-02/PC015.wav	1.0	1	1.014
154.153	4.245	P_C	1.0	n/a	n/a	1.0	0.244	Phon/Phon_run-02/ContS14.wav	1.0	1	0.994
158.406	3.854	P_R	1.0	n/a	n/a	1.0	2.48	Phon/Phon_run-02/stereo_PR14.wav	1.0	1	2.23
162.275	4.239	P_O	1.0	n/a	n/a	1.0	2.176	Phon/Phon_run-02/PC008.wav	1.0	1	1.9260000000000002
166.52900000000002	4.25	P_U	2.0	n/a	n/a	2.0	1.594	Phon/Phon_run-02/stereo_PU11.wav	2.0	1	1.344
170.782	3.523	P_C	1.0	n/a	n/a	1.0	0.249	Phon/Phon_run-02/ContS18.wav	1.0	1	0.999
174.31799999999996	3.429	P_O	1.0	n/a	n/a	1.0	1.47	Phon/Phon_run-02/PC006.wav	1.0	1	1.22
177.75400000000005	4.18	P_R	1.0	n/a	n/a	1.0	1.5030000000000001	Phon/Phon_run-02/stereo_PR32.wav	1.0	1	1.253
181.94099999999997	4.104	P_R	1.0	n/a	n/a	1.0	1.301	Phon/Phon_run-02/stereo_PR24.wav	1.0	1	1.051
