onset	duration	trial_type	correct	window1_response	window1_RT	window2_response	window2_RT	stim_file	calculated_response	calculated_accuracy	calculated_RT
1.084	4.2	S_U	2.0	n/a	n/a	2.0	1.712	Sem/Sem_run-01/stereo_1SU41A0.wav	2.0	1	1.462
5.287000000000001	3.596	S_C	1.0	n/a	n/a	1.0	1.0070000000000001	Sem/Sem_run-01/ContS29.wav	1.0	1	1.757
8.89	3.425	S_U	2.0	n/a	n/a	2.0	1.781	Sem/Sem_run-01/stereo_2SU87A0.wav	2.0	1	1.531
12.325999999999999	3.933	S_H	1.0	n/a	n/a	1.0	1.486	Sem/Sem_run-01/stereo_1SH13A0.wav	1.0	1	1.236
16.262999999999998	4.323	S_H	1.0	n/a	n/a	1.0	1.643	Sem/Sem_run-01/stereo_1SH05A0.wav	1.0	1	1.393
20.599	4.073	S_C	1.0	n/a	n/a	1.0	0.996	Sem/Sem_run-01/ContS31.wav	1.0	1	1.746
24.686	3.869	S_L	1.0	n/a	n/a	1.0	1.7380000000000002	Sem/Sem_run-01/stereo_2SL63A0.wav	1.0	1	1.4880000000000002
28.555	3.75	S_L	1.0	n/a	n/a	2.0	1.767	Sem/Sem_run-01/stereo_1SL29A0.wav	2.0	0	1.517
32.308	4.3660000000000005	S_U	2.0	n/a	n/a	2.0	1.969	Sem/Sem_run-01/stereo_2SU78A0.wav	2.0	1	1.719
36.678000000000004	3.3	S_L	1.0	n/a	n/a	1.0	1.514	Sem/Sem_run-01/stereo_1SL17A0.wav	1.0	1	1.264
39.981	3.884	S_C	1.0	n/a	n/a	1.0	0.9520000000000001	Sem/Sem_run-01/ContS05.wav	1.0	1	1.702
43.867	4.371	S_H	1.0	n/a	n/a	1.0	1.445	Sem/Sem_run-01/stereo_2SH58A0.wav	1.0	1	1.195
48.254	4.329	S_L	1.0	n/a	n/a	1.0	1.847	Sem/Sem_run-01/stereo_2SL72A0.wav	1.0	1	1.597
52.59	3.94	S_H	1.0	n/a	n/a	1.0	1.6669999999999998	Sem/Sem_run-01/stereo_2SH57A0.wav	1.0	1	1.4169999999999998
56.543	4.2	S_U	2.0	n/a	n/a	2.0	1.652	Sem/Sem_run-01/stereo_2SU83A0.wav	2.0	1	1.402
60.747	3.474	S_C	1.0	n/a	n/a	1.0	1.402	Sem/Sem_run-01/ContS11.wav	1.0	1	2.152
64.233	4.271	S_L	1.0	n/a	n/a	1.0	1.8219999999999998	Sem/Sem_run-01/stereo_1SL26A0.wav	1.0	1	1.5719999999999998
68.51899999999999	3.91	S_L	1.0	n/a	n/a	1.0	1.5659999999999998	Sem/Sem_run-01/stereo_1SL25A0.wav	1.0	1	1.3159999999999998
72.439	4.479	S_C	1.0	n/a	n/a	1.0	1.037	Sem/Sem_run-01/ContS25.wav	1.0	1	1.787
76.926	3.378	S_U	2.0	n/a	n/a	2.0	1.661	Sem/Sem_run-01/stereo_2SU81A0.wav	2.0	1	1.411
80.312	3.42	S_L	1.0	n/a	n/a	1.0	1.465	Sem/Sem_run-01/stereo_1SL27A0.wav	1.0	1	1.215
83.74799999999998	4.3439999999999985	S_L	1.0	n/a	n/a	1.0	2.022	Sem/Sem_run-01/stereo_1SL30A0.wav	1.0	1	1.7719999999999998
88.101	3.909	S_L	1.0	n/a	n/a	1.0	2.345	Sem/Sem_run-01/stereo_2SL71A0.wav	1.0	1	2.095
92.021	3.867	S_H	1.0	n/a	n/a	1.0	2.064	Sem/Sem_run-01/stereo_1SH04A0.wav	1.0	1	1.814
95.89	3.828	S_U	2.0	n/a	n/a	1.0	1.743	Sem/Sem_run-01/stereo_1SU37A0.wav	1.0	0	1.493
99.727	4.565	S_C	1.0	n/a	n/a	1.0	2.329	Sem/Sem_run-01/ContS35.wav	1.0	1	3.079
104.29700000000001	3.3	S_U	2.0	n/a	n/a	n/a	n/a	Sem/Sem_run-01/stereo_1SU35A0.wav	2.0	1	3.0039999999999996
107.59899999999999	3.477	S_L	1.0	2.0	0.7040000000000001	1.0	1.483	Sem/Sem_run-01/stereo_2SL65A0.wav	1.0	1	1.233
111.085	3.83	S_H	1.0	n/a	n/a	1.0	1.76	Sem/Sem_run-01/stereo_1SH07A0.wav	1.0	1	1.51
114.92200000000001	4.3439999999999985	S_C	1.0	n/a	n/a	1.0	0.43700000000000006	Sem/Sem_run-01/ContS07.wav	1.0	1	1.187
119.275	3.5	S_H	1.0	n/a	n/a	1.0	1.4069999999999998	Sem/Sem_run-01/stereo_1SH03A0.wav	1.0	1	1.1569999999999998
122.77799999999999	3.919	S_U	2.0	n/a	n/a	2.0	1.821	Sem/Sem_run-01/stereo_1SU45A0.wav	2.0	1	1.571
126.697	3.5	S_H	1.0	n/a	n/a	1.0	1.645	Sem/Sem_run-01/stereo_1SH06A0.wav	1.0	1	1.395
130.2	3.392	S_L	1.0	n/a	n/a	1.0	2.003	Sem/Sem_run-01/stereo_2SL62A0.wav	1.0	1	1.7530000000000001
133.60299999999998	3.54	S_C	1.0	n/a	n/a	2.0	1.835	Sem/Sem_run-01/ContS19.wav	2.0	0	2.585
137.155	4.4	S_H	1.0	1.0	0.142	1.0	2.048	Sem/Sem_run-01/stereo_1SH15A0.wav	1.0	1	1.798
141.559	3.342	S_H	1.0	n/a	n/a	1.0	1.125	Sem/Sem_run-01/stereo_1SH11A0.wav	1.0	1	0.875
144.911	3.385	S_U	2.0	n/a	n/a	n/a	n/a	Sem/Sem_run-01/stereo_1SU44A0.wav	2.0	1	2.532
148.297	3.4160000000000004	S_H	1.0	2.0	0.147	1.0	1.5590000000000002	Sem/Sem_run-01/stereo_2SH56A0.wav	1.0	1	1.3090000000000002
151.716	3.849	S_U	2.0	n/a	n/a	2.0	2.214	Sem/Sem_run-01/stereo_2SU82A0.wav	2.0	1	1.964
155.569	3.934	S_C	1.0	n/a	n/a	1.0	0.21899999999999997	Sem/Sem_run-01/ContS13.wav	1.0	1	0.969
159.506	4.309	S_L	1.0	n/a	n/a	1.0	1.3	Sem/Sem_run-01/stereo_2SL64A0.wav	1.0	1	1.05
163.826	4.413	S_C	1.0	n/a	n/a	1.0	0.605	Sem/Sem_run-01/ContS17.wav	1.0	1	1.355
168.24599999999995	4.2	S_U	2.0	n/a	n/a	2.0	1.641	Sem/Sem_run-01/stereo_2SU90A0.wav	2.0	1	1.391
172.449	3.846	S_U	2.0	n/a	n/a	2.0	2.443	Sem/Sem_run-01/stereo_2SU88A0.wav	2.0	1	2.193
176.30200000000005	3.3939999999999997	S_C	1.0	n/a	n/a	1.0	0.7170000000000001	Sem/Sem_run-01/ContS01.wav	1.0	1	1.467
179.705	4.013	S_C	1.0	n/a	n/a	1.0	0.633	Sem/Sem_run-01/ContS23.wav	1.0	1	1.383
183.72400000000002	4.227	S_H	1.0	n/a	n/a	1.0	2.0580000000000003	Sem/Sem_run-01/stereo_1SH08A0.wav	1.0	1	1.8080000000000005
