onset	duration	trial_type	correct	window1_response	window1_RT	window2_response	window2_RT	stim_file	calculated_response	calculated_accuracy	calculated_RT
1.101	3.5	P_R	1.0	n/a	n/a	2.0	1.777	Phon/Phon_run-02/stereo_PR20.wav	2.0	0	1.527
4.603	4.235	P_O	1.0	n/a	n/a	1.0	1.6119999999999999	Phon/Phon_run-02/PC034.wav	1.0	1	1.3619999999999999
8.84	3.375	P_R	1.0	n/a	n/a	1.0	1.795	Phon/Phon_run-02/stereo_PR13.wav	1.0	1	1.545
12.225999999999999	3.474	P_C	1.0	n/a	n/a	1.0	0.38	Phon/Phon_run-02/ContS12.wav	1.0	1	1.13
15.712	3.875	P_U	2.0	n/a	n/a	2.0	1.338	Phon/Phon_run-02/PM025.wav	2.0	1	1.088
19.598	3.726	P_R	1.0	n/a	n/a	1.0	2.166	Phon/Phon_run-02/stereo_PR22.wav	1.0	1	1.916
23.334	3.451	P_O	1.0	n/a	n/a	2.0	1.358	Phon/Phon_run-02/PC014.wav	2.0	0	1.108
26.787	3.779	P_C	1.0	n/a	n/a	1.0	0.32799999999999996	Phon/Phon_run-02/ContS02.wav	1.0	1	1.0779999999999998
30.573	3.821	P_U	2.0	n/a	n/a	2.0	1.386	Phon/Phon_run-02/stereo_PU18.wav	2.0	1	1.136
34.409	3.49	P_U	2.0	n/a	n/a	2.0	1.729	Phon/Phon_run-02/stereo_PU12.wav	2.0	1	1.479
37.912	4.38	P_C	1.0	n/a	n/a	1.0	0.45	Phon/Phon_run-02/ContS32.wav	1.0	1	1.2
42.299	4.0969999999999995	P_R	1.0	n/a	n/a	1.0	1.258	Phon/Phon_run-02/stereo_PR16.wav	1.0	1	1.008
46.402	3.5	P_O	1.0	n/a	n/a	2.0	1.56	Phon/Phon_run-02/PC022.wav	2.0	0	1.31
49.903999999999996	4.0760000000000005	P_R	1.0	n/a	n/a	1.0	1.62	Phon/Phon_run-02/stereo_PR08.wav	1.0	1	1.37
53.99100000000001	3.5	P_O	1.0	n/a	n/a	1.0	1.544	Phon/Phon_run-02/PC028.wav	1.0	1	1.294
57.493	3.5	P_U	2.0	n/a	n/a	2.0	1.4880000000000002	Phon/Phon_run-02/stereo_PU27.wav	2.0	1	1.2380000000000002
60.996	3.819	P_C	1.0	n/a	n/a	1.0	0.355	Phon/Phon_run-02/ContS06.wav	1.0	1	1.105
64.816	4.25	P_O	1.0	n/a	n/a	1.0	1.3219999999999998	Phon/Phon_run-02/PC031.wav	1.0	1	1.0719999999999998
69.069	3.662	P_C	1.0	n/a	n/a	1.0	0.36	Phon/Phon_run-02/ContS36.wav	1.0	1	1.1099999999999999
72.738	3.823	P_O	1.0	n/a	n/a	2.0	1.29	Phon/Phon_run-02/PC023.wav	2.0	0	1.04
76.575	4.323	P_C	1.0	n/a	n/a	1.0	0.29	Phon/Phon_run-02/ContS24.wav	1.0	1	1.04
80.911	3.865	P_U	2.0	n/a	n/a	2.0	1.25	Phon/Phon_run-02/PM004.wav	2.0	1	1.0
84.781	3.875	P_O	1.0	n/a	n/a	1.0	1.3840000000000001	Phon/Phon_run-02/PC007.wav	1.0	1	1.1340000000000001
88.667	4.25	P_U	2.0	n/a	n/a	2.0	1.485	Phon/Phon_run-02/PM011.wav	2.0	1	1.235
92.92	4.362	P_C	1.0	n/a	n/a	1.0	0.182	Phon/Phon_run-02/ContS30.wav	1.0	1	0.9319999999999999
97.29	3.875	P_O	1.0	n/a	n/a	2.0	1.5530000000000002	Phon/Phon_run-02/PC030.wav	2.0	0	1.3030000000000002
101.177	3.3360000000000003	P_R	1.0	n/a	n/a	1.0	1.234	Phon/Phon_run-02/stereo_PR05.wav	1.0	1	0.984
104.51299999999999	4.113	P_U	2.0	n/a	n/a	2.0	1.273	Phon/Phon_run-02/stereo_PU01.wav	2.0	1	1.023
108.632	4.1739999999999995	P_U	2.0	n/a	n/a	2.0	1.393	Phon/Phon_run-02/PM029.wav	2.0	1	1.143
112.819	3.4539999999999997	P_C	1.0	n/a	n/a	1.0	0.319	Phon/Phon_run-02/ContS08.wav	1.0	1	1.069
116.288	3.446	P_R	1.0	n/a	n/a	1.0	1.6	Phon/Phon_run-02/stereo_PR30.wav	1.0	1	1.35
119.741	3.85	P_R	1.0	n/a	n/a	1.0	1.4809999999999999	Phon/Phon_run-02/stereo_PR07.wav	1.0	1	1.2309999999999999
123.594	3.438	P_U	2.0	n/a	n/a	2.0	1.402	Phon/Phon_run-02/stereo_PU02.wav	2.0	1	1.152
127.046	3.915	P_C	1.0	n/a	n/a	1.0	0.33399999999999996	Phon/Phon_run-02/ContS20.wav	1.0	1	1.084
130.966	3.487	P_U	2.0	n/a	n/a	1.0	1.355	Phon/Phon_run-02/PM021.wav	1.0	0	1.105
134.469	3.965	P_C	1.0	n/a	n/a	1.0	0.138	Phon/Phon_run-02/ContS26.wav	1.0	1	0.888
138.438	3.792	P_R	1.0	n/a	n/a	1.0	1.516	Phon/Phon_run-02/stereo_PR31.wav	1.0	1	1.266
142.241	4.135	P_O	1.0	n/a	n/a	1.0	1.536	Phon/Phon_run-02/PC024.wav	1.0	1	1.286
146.378	3.875	P_U	2.0	n/a	n/a	2.0	1.368	Phon/Phon_run-02/PM010.wav	2.0	1	1.118
150.264	3.875	P_O	1.0	n/a	n/a	2.0	1.5219999999999998	Phon/Phon_run-02/PC015.wav	2.0	0	1.2719999999999998
154.15	4.245	P_C	1.0	n/a	n/a	1.0	0.156	Phon/Phon_run-02/ContS14.wav	1.0	1	0.906
158.404	3.854	P_R	1.0	n/a	n/a	1.0	1.298	Phon/Phon_run-02/stereo_PR14.wav	1.0	1	1.048
162.273	4.239	P_O	1.0	n/a	n/a	1.0	1.3219999999999998	Phon/Phon_run-02/PC008.wav	1.0	1	1.0719999999999998
166.52599999999995	4.25	P_U	2.0	n/a	n/a	2.0	1.65	Phon/Phon_run-02/stereo_PU11.wav	2.0	1	1.4
170.78	3.523	P_C	1.0	n/a	n/a	1.0	0.32	Phon/Phon_run-02/ContS18.wav	1.0	1	1.07
174.31599999999997	3.429	P_O	1.0	n/a	n/a	1.0	1.439	Phon/Phon_run-02/PC006.wav	1.0	1	1.189
177.752	4.18	P_R	1.0	n/a	n/a	1.0	1.6480000000000001	Phon/Phon_run-02/stereo_PR32.wav	1.0	1	1.3980000000000001
181.938	4.104	P_R	1.0	n/a	n/a	1.0	1.315	Phon/Phon_run-02/stereo_PR24.wav	1.0	1	1.065
