onset	duration	trial_type	correct	window1_response	window1_RT	window2_response	window2_RT	stim_file	calculated_response	calculated_accuracy	calculated_RT
1.101	7.034	SP_W	1.0	n/a	n/a	1.0	3.56	Plaus/Plaus_run-01/stereo_PW85.wav	1.0	1	1.4129999999999998
8.139	5.641	SP_I	2.0	n/a	n/a	2.0	2.336	Plaus/Plaus_run-01/stereo_PI11.wav	2.0	1	1.4159999999999997
13.794	6.77	SP_C	1.0	n/a	n/a	1.0	0.253	Plaus/Plaus_run-01/CoM08b.wav	1.0	1	1.003
20.566	7.327000000000001	SP_W	1.0	n/a	n/a	1.0	3.46	Plaus/Plaus_run-01/stereo_PW72.wav	1.0	1	1.48
27.904	6.145	SP_C	1.0	n/a	n/a	1.0	0.053	Plaus/Plaus_run-01/CoM05d.wav	1.0	1	0.8029999999999999
34.059	5.181	SP_I	2.0	n/a	n/a	2.0	2.4	Plaus/Plaus_run-01/stereo_PI65.wav	2.0	1	1.4579999999999995
39.246	5.092	SP_S	1.0	n/a	n/a	1.0	2.637	Plaus/Plaus_run-01/stereo_PC13.wav	1.0	1	1.5739999999999998
44.35	7.355	SP_C	1.0	n/a	n/a	1.0	0.349	Plaus/Plaus_run-01/CoM06l.wav	1.0	1	1.099
51.706	7.47	SP_I	2.0	n/a	n/a	2.0	3.935	Plaus/Plaus_run-01/stereo_PI90.wav	2.0	1	1.7640000000000002
59.178	7.399	SP_S	1.0	n/a	n/a	1.0	3.462	Plaus/Plaus_run-01/stereo_PC35.wav	1.0	1	1.1949999999999998
66.584	5.685	SP_S	1.0	n/a	n/a	1.0	2.474	Plaus/Plaus_run-01/stereo_PC47.wav	1.0	1	1.465
72.27199999999998	5.669	SP_W	1.0	n/a	n/a	2.0	2.3080000000000003	Plaus/Plaus_run-01/stereo_PW19.wav	2.0	0	1.3020000000000005
77.943	7.9	SP_C	1.0	n/a	n/a	1.0	1.164	Plaus/Plaus_run-01/CoM03l.wav	1.0	1	1.914
85.84899999999998	5.145	SP_I	2.0	n/a	n/a	2.0	2.537	Plaus/Plaus_run-01/stereo_PI09.wav	2.0	1	1.529
91.003	6.9170000000000025	SP_W	1.0	n/a	n/a	1.0	4.3580000000000005	Plaus/Plaus_run-01/stereo_PW30.wav	1.0	1	2.2380000000000004
97.924	5.738	SP_S	1.0	n/a	n/a	1.0	2.623	Plaus/Plaus_run-01/stereo_PC14.wav	1.0	1	1.4520000000000002
103.662	6.276	SP_W	1.0	n/a	n/a	1.0	2.6010000000000004	Plaus/Plaus_run-01/stereo_PW50.wav	1.0	1	1.7790000000000004
109.95	5.49	SP_C	1.0	n/a	n/a	1.0	0.049	Plaus/Plaus_run-01/CoM03d.wav	1.0	1	0.799
115.454	5.7	SP_I	2.0	n/a	n/a	2.0	2.841	Plaus/Plaus_run-01/stereo_PI67.wav	2.0	1	1.95
121.159	7.237	SP_S	1.0	n/a	n/a	1.0	3.133	Plaus/Plaus_run-01/stereo_PC68.wav	1.0	1	1.1669999999999998
128.398	6.49	SP_C	1.0	n/a	n/a	1.0	0.065	Plaus/Plaus_run-01/CoM03b.wav	1.0	1	0.815
134.903	6.25	SP_W	1.0	n/a	n/a	1.0	2.379	Plaus/Plaus_run-01/stereo_PW61.wav	1.0	1	1.399
141.157	6.952999999999999	SP_I	2.0	n/a	n/a	2.0	4.008	Plaus/Plaus_run-01/stereo_PI32.wav	2.0	1	1.8430000000000002
148.113	7.085	SP_C	1.0	n/a	n/a	1.0	0.672	Plaus/Plaus_run-01/CoM02e.wav	1.0	1	1.4220000000000002
155.201	6.3610000000000015	SP_S	1.0	n/a	n/a	1.0	3.725	Plaus/Plaus_run-01/stereo_PC24.wav	1.0	1	1.4669999999999999
161.57299999999995	5.1110000000000015	SP_W	1.0	n/a	n/a	1.0	2.669	Plaus/Plaus_run-01/stereo_PW53.wav	1.0	1	1.6549999999999998
166.69299999999996	6.2860000000000005	SP_I	2.0	n/a	n/a	2.0	3.737	Plaus/Plaus_run-01/stereo_PI42.wav	2.0	1	1.5410000000000004
172.982	6.577000000000001	SP_S	1.0	n/a	n/a	2.0	4.133	Plaus/Plaus_run-01/stereo_PC57.wav	2.0	0	2.938
179.57	5.273	SP_W	1.0	n/a	n/a	2.0	3.341	Plaus/Plaus_run-01/stereo_PW18.wav	2.0	0	2.1740000000000004
184.857	5.77	SP_C	1.0	n/a	n/a	1.0	0.812	Plaus/Plaus_run-01/CoM09b.wav	1.0	1	1.5619999999999998
190.628	6.731	SP_S	1.0	n/a	n/a	1.0	4.1080000000000005	Plaus/Plaus_run-01/stereo_PC26.wav	1.0	1	2.0080000000000005
197.367	7.212999999999999	SP_I	2.0	n/a	n/a	2.0	4.112	Plaus/Plaus_run-01/stereo_PI33.wav	2.0	1	2.129
204.58900000000003	5.181	SP_S	1.0	n/a	n/a	1.0	2.698	Plaus/Plaus_run-01/stereo_PC01.wav	1.0	1	1.757
209.776	6.238	SP_S	1.0	n/a	n/a	1.0	3.719	Plaus/Plaus_run-01/stereo_PC36.wav	1.0	1	1.6729999999999996
216.014	7.73	SP_C	1.0	n/a	n/a	1.0	0.055	Plaus/Plaus_run-01/CoM10e.wav	1.0	1	0.805
223.754	6.843	SP_I	2.0	n/a	n/a	2.0	4.415	Plaus/Plaus_run-01/stereo_PI45.wav	2.0	1	2.2880000000000003
230.609	6.101	SP_W	1.0	n/a	n/a	2.0	3.768	Plaus/Plaus_run-01/stereo_PW28.wav	2.0	0	1.836
236.713	7.419	SP_W	1.0	n/a	n/a	1.0	3.592	Plaus/Plaus_run-01/stereo_PW86.wav	1.0	1	1.5560000000000005
244.136	6.54	SP_C	1.0	n/a	n/a	1.0	0.8290000000000001	Plaus/Plaus_run-01/CoM05e.wav	1.0	1	1.5790000000000002
250.691	6.247000000000001	SP_I	2.0	n/a	n/a	2.0	2.63	Plaus/Plaus_run-01/stereo_PI12.wav	2.0	1	1.7590000000000001
