onset	duration	trial_type	correct	window1_response	window1_RT	window2_response	window2_RT	stim_file	calculated_response	calculated_accuracy	calculated_RT
1.084	7.034	SP_W	1.0	n/a	n/a	1.0	4.244	Plaus/Plaus_run-01/stereo_PW85.wav	1.0	1	2.0969999999999995
8.123	5.641	SP_I	2.0	n/a	n/a	2.0	2.418	Plaus/Plaus_run-01/stereo_PI11.wav	2.0	1	1.498
13.777	6.77	SP_C	1.0	n/a	n/a	1.0	0.988	Plaus/Plaus_run-01/CoM08b.wav	1.0	1	1.738
20.549	7.327000000000001	SP_W	1.0	n/a	n/a	2.0	4.833	Plaus/Plaus_run-01/stereo_PW72.wav	2.0	0	2.853
27.888	6.145	SP_C	1.0	n/a	n/a	1.0	1.656	Plaus/Plaus_run-01/CoM05d.wav	1.0	1	2.4059999999999997
34.043	5.181	SP_I	2.0	n/a	n/a	2.0	3.262	Plaus/Plaus_run-01/stereo_PI65.wav	2.0	1	2.32
39.23	5.092	SP_S	1.0	n/a	n/a	1.0	3.6319999999999997	Plaus/Plaus_run-01/stereo_PC13.wav	1.0	1	2.569
44.334	7.355	SP_C	1.0	n/a	n/a	1.0	1.401	Plaus/Plaus_run-01/CoM06l.wav	1.0	1	2.151
51.69	7.47	SP_I	2.0	n/a	n/a	2.0	3.97	Plaus/Plaus_run-01/stereo_PI90.wav	2.0	1	1.7990000000000004
59.162	7.399	SP_S	1.0	n/a	n/a	1.0	5.182	Plaus/Plaus_run-01/stereo_PC35.wav	1.0	1	2.9150000000000005
66.568	5.685	SP_S	1.0	n/a	n/a	1.0	2.3569999999999998	Plaus/Plaus_run-01/stereo_PC47.wav	1.0	1	1.348
72.255	5.669	SP_W	1.0	n/a	n/a	1.0	3.0189999999999997	Plaus/Plaus_run-01/stereo_PW19.wav	1.0	1	2.013
77.926	7.9	SP_C	1.0	n/a	n/a	1.0	3.5439999999999996	Plaus/Plaus_run-01/CoM03l.wav	1.0	1	4.2940000000000005
85.833	5.145	SP_I	2.0	n/a	n/a	2.0	3.002	Plaus/Plaus_run-01/stereo_PI09.wav	2.0	1	1.994
90.986	6.9170000000000025	SP_W	1.0	n/a	n/a	1.0	5.414	Plaus/Plaus_run-01/stereo_PW30.wav	1.0	1	3.2939999999999996
97.908	5.738	SP_S	1.0	n/a	n/a	1.0	3.109	Plaus/Plaus_run-01/stereo_PC14.wav	1.0	1	1.938
103.646	6.276	SP_W	1.0	n/a	n/a	1.0	3.1039999999999996	Plaus/Plaus_run-01/stereo_PW50.wav	1.0	1	2.282
109.934	5.49	SP_C	1.0	n/a	n/a	1.0	2.735	Plaus/Plaus_run-01/CoM03d.wav	1.0	1	3.485
115.438	5.7	SP_I	2.0	n/a	n/a	2.0	3.424	Plaus/Plaus_run-01/stereo_PI67.wav	2.0	1	2.533
121.143	7.237	SP_S	1.0	n/a	n/a	1.0	5.688	Plaus/Plaus_run-01/stereo_PC68.wav	1.0	1	3.7219999999999995
128.382	6.49	SP_C	1.0	n/a	n/a	1.0	2.575	Plaus/Plaus_run-01/CoM03b.wav	1.0	1	3.325
134.887	6.25	SP_W	1.0	n/a	n/a	2.0	3.3510000000000004	Plaus/Plaus_run-01/stereo_PW61.wav	2.0	0	2.3710000000000004
141.141	6.952999999999999	SP_I	2.0	n/a	n/a	2.0	5.71	Plaus/Plaus_run-01/stereo_PI32.wav	2.0	1	3.545
148.097	7.085	SP_C	1.0	n/a	n/a	1.0	4.428	Plaus/Plaus_run-01/CoM02e.wav	1.0	1	5.178
155.186	6.3610000000000015	SP_S	1.0	n/a	n/a	1.0	3.59	Plaus/Plaus_run-01/stereo_PC24.wav	1.0	1	1.3319999999999999
161.55700000000004	5.1110000000000015	SP_W	1.0	n/a	n/a	n/a	n/a	Plaus/Plaus_run-01/stereo_PW53.wav	n/a	0	n/a
166.678	6.2860000000000005	SP_I	2.0	n/a	n/a	2.0	4.41	Plaus/Plaus_run-01/stereo_PI42.wav	2.0	1	2.2140000000000004
172.96599999999995	6.577000000000001	SP_S	1.0	n/a	n/a	1.0	3.48	Plaus/Plaus_run-01/stereo_PC57.wav	1.0	1	2.285
179.554	5.273	SP_W	1.0	n/a	n/a	2.0	3.873	Plaus/Plaus_run-01/stereo_PW18.wav	2.0	0	2.7060000000000004
184.842	5.77	SP_C	1.0	n/a	n/a	n/a	n/a	Plaus/Plaus_run-01/CoM09b.wav	n/a	0	n/a
190.613	6.731	SP_S	1.0	n/a	n/a	2.0	3.853	Plaus/Plaus_run-01/stereo_PC26.wav	2.0	0	1.7530000000000001
197.351	7.212999999999999	SP_I	2.0	n/a	n/a	1.0	4.063	Plaus/Plaus_run-01/stereo_PI33.wav	1.0	0	2.0799999999999996
204.573	5.181	SP_S	1.0	n/a	n/a	1.0	3.227	Plaus/Plaus_run-01/stereo_PC01.wav	1.0	1	2.286
209.761	6.238	SP_S	1.0	n/a	n/a	1.0	4.575	Plaus/Plaus_run-01/stereo_PC36.wav	1.0	1	2.529
215.999	7.73	SP_C	1.0	n/a	n/a	1.0	2.98	Plaus/Plaus_run-01/CoM10e.wav	1.0	1	3.73
223.738	6.843	SP_I	2.0	n/a	n/a	2.0	4.551	Plaus/Plaus_run-01/stereo_PI45.wav	2.0	1	2.4240000000000004
230.593	6.101	SP_W	1.0	n/a	n/a	1.0	3.397	Plaus/Plaus_run-01/stereo_PW28.wav	1.0	1	1.4649999999999994
236.698	7.419	SP_W	1.0	n/a	n/a	1.0	3.7439999999999998	Plaus/Plaus_run-01/stereo_PW86.wav	1.0	1	1.7080000000000006
244.12	6.54	SP_C	1.0	n/a	n/a	1.0	0.8640000000000001	Plaus/Plaus_run-01/CoM05e.wav	1.0	1	1.614
250.675	6.247000000000001	SP_I	2.0	n/a	n/a	2.0	3.8160000000000003	Plaus/Plaus_run-01/stereo_PI12.wav	2.0	1	2.945
