onset	duration	trial_type	correct	window1_response	window1_RT	window2_response	window2_RT	stim_file	calculated_response	calculated_accuracy	calculated_RT
1.0924	3.5	P_R	1.0	n/a	n/a	1.0	2.164	Phon/Phon_run-02/stereo_PR20.wav	1.0	1	1.9140000000000001
4.595	4.235	P_O	1.0	n/a	n/a	1.0	1.354	Phon/Phon_run-02/PC034.wav	1.0	1	1.104
8.8325	3.375	P_R	1.0	n/a	n/a	1.0	1.24	Phon/Phon_run-02/stereo_PR13.wav	1.0	1	0.99
12.2183	3.474	P_C	1.0	n/a	n/a	n/a	n/a	Phon/Phon_run-02/ContS12.wav	n/a	0	n/a
15.7041	3.875	P_U	2.0	n/a	n/a	2.0	1.161	Phon/Phon_run-02/PM025.wav	2.0	1	0.911
19.5903	3.726	P_R	1.0	n/a	n/a	n/a	n/a	Phon/Phon_run-02/stereo_PR22.wav	n/a	0	n/a
23.3263	3.451	P_O	1.0	n/a	n/a	1.0	2.019	Phon/Phon_run-02/PC014.wav	1.0	1	1.7690000000000001
26.7799	3.779	P_C	1.0	n/a	n/a	1.0	1.702	Phon/Phon_run-02/ContS02.wav	1.0	1	2.452
30.566	3.821	P_U	2.0	n/a	n/a	2.0	1.944	Phon/Phon_run-02/stereo_PU18.wav	2.0	1	1.694
34.402	3.49	P_U	2.0	n/a	n/a	n/a	n/a	Phon/Phon_run-02/stereo_PU12.wav	n/a	0	n/a
37.9046	4.38	P_C	1.0	2.0	0.214	1.0	2.833	Phon/Phon_run-02/ContS32.wav	2.0	0	0.214
42.291000000000004	4.0969999999999995	P_R	1.0	n/a	n/a	1.0	2.458	Phon/Phon_run-02/stereo_PR16.wav	1.0	1	2.208
46.394	3.5	P_O	1.0	n/a	n/a	2.0	1.9040000000000001	Phon/Phon_run-02/PC022.wav	2.0	0	1.654
49.8966	4.0760000000000005	P_R	1.0	n/a	n/a	1.0	1.85	Phon/Phon_run-02/stereo_PR08.wav	1.0	1	1.6
53.983000000000004	3.5	P_O	1.0	n/a	n/a	n/a	n/a	Phon/Phon_run-02/PC028.wav	1.0	1	2.83
57.4856	3.5	P_U	2.0	1.0	0.33	2.0	2.056	Phon/Phon_run-02/stereo_PU27.wav	2.0	1	1.806
60.9881	3.819	P_C	1.0	n/a	n/a	1.0	2.035	Phon/Phon_run-02/ContS06.wav	1.0	1	2.785
64.8086	4.25	P_O	1.0	n/a	n/a	1.0	2.388	Phon/Phon_run-02/PC031.wav	1.0	1	2.138
69.062	3.662	P_C	1.0	n/a	n/a	n/a	n/a	Phon/Phon_run-02/ContS36.wav	n/a	0	n/a
72.7312	3.823	P_O	1.0	n/a	n/a	1.0	2.46	Phon/Phon_run-02/PC023.wav	1.0	1	2.21
76.5674	4.323	P_C	1.0	n/a	n/a	1.0	1.6280000000000001	Phon/Phon_run-02/ContS24.wav	1.0	1	2.378
80.9038	3.865	P_U	2.0	n/a	n/a	2.0	2.032	Phon/Phon_run-02/PM004.wav	2.0	1	1.782
84.7733	3.875	P_O	1.0	n/a	n/a	1.0	1.7380000000000002	Phon/Phon_run-02/PC007.wav	1.0	1	1.4880000000000002
88.6594	4.25	P_U	2.0	n/a	n/a	2.0	1.6569999999999998	Phon/Phon_run-02/PM011.wav	2.0	1	1.4069999999999998
92.9126	4.362	P_C	1.0	n/a	n/a	1.0	1.489	Phon/Phon_run-02/ContS30.wav	1.0	1	2.239
97.2825	3.875	P_O	1.0	n/a	n/a	1.0	2.533	Phon/Phon_run-02/PC030.wav	1.0	1	2.283
101.1687	3.3360000000000003	P_R	1.0	n/a	n/a	1.0	1.494	Phon/Phon_run-02/stereo_PR05.wav	1.0	1	1.244
104.5077	4.113	P_U	2.0	n/a	n/a	2.0	1.87	Phon/Phon_run-02/stereo_PU01.wav	2.0	1	1.62
108.6273	4.1739999999999995	P_U	2.0	n/a	n/a	2.0	2.369	Phon/Phon_run-02/PM029.wav	2.0	1	2.119
112.8137	3.4539999999999997	P_C	1.0	n/a	n/a	1.0	1.732	Phon/Phon_run-02/ContS08.wav	1.0	1	2.482
116.2828	3.446	P_R	1.0	n/a	n/a	1.0	1.3659999999999999	Phon/Phon_run-02/stereo_PR30.wav	1.0	1	1.116
119.7352	3.85	P_R	1.0	n/a	n/a	1.0	2.6510000000000002	Phon/Phon_run-02/stereo_PR07.wav	1.0	1	2.401
123.588	3.438	P_U	2.0	n/a	n/a	2.0	1.244	Phon/Phon_run-02/stereo_PU02.wav	2.0	1	0.994
127.0406	3.915	P_C	1.0	n/a	n/a	1.0	1.515	Phon/Phon_run-02/ContS20.wav	1.0	1	2.2649999999999997
130.9601	3.487	P_U	2.0	n/a	n/a	1.0	2.217	Phon/Phon_run-02/PM021.wav	1.0	0	1.967
134.46200000000002	3.965	P_C	1.0	n/a	n/a	2.0	1.485	Phon/Phon_run-02/ContS26.wav	2.0	0	2.2350000000000003
138.4315	3.792	P_R	1.0	n/a	n/a	1.0	1.486	Phon/Phon_run-02/stereo_PR31.wav	1.0	1	1.236
142.2343	4.135	P_O	1.0	n/a	n/a	1.0	1.506	Phon/Phon_run-02/PC024.wav	1.0	1	1.256
146.3717	3.875	P_U	2.0	n/a	n/a	2.0	1.817	Phon/Phon_run-02/PM010.wav	2.0	1	1.567
150.2579	3.875	P_O	1.0	n/a	n/a	1.0	1.2570000000000001	Phon/Phon_run-02/PC015.wav	1.0	1	1.007
154.144	4.245	P_C	1.0	n/a	n/a	1.0	1.449	Phon/Phon_run-02/ContS14.wav	1.0	1	2.199
158.3971	3.854	P_R	1.0	n/a	n/a	1.0	2.14	Phon/Phon_run-02/stereo_PR14.wav	1.0	1	1.8900000000000001
162.2662	4.239	P_O	1.0	n/a	n/a	1.0	2.517	Phon/Phon_run-02/PC008.wav	1.0	1	2.267
166.5192	4.25	P_U	2.0	n/a	n/a	2.0	2.002	Phon/Phon_run-02/stereo_PU11.wav	2.0	1	1.7519999999999998
170.7726	3.523	P_C	1.0	n/a	n/a	1.0	2.326	Phon/Phon_run-02/ContS18.wav	1.0	1	3.076
174.3085	3.429	P_O	1.0	n/a	n/a	1.0	1.248	Phon/Phon_run-02/PC006.wav	1.0	1	0.998
177.7443	4.18	P_R	1.0	n/a	n/a	1.0	1.406	Phon/Phon_run-02/stereo_PR32.wav	1.0	1	1.156
181.9307	4.104	P_R	1.0	n/a	n/a	1.0	2.198	Phon/Phon_run-02/stereo_PR24.wav	1.0	1	1.948
