onset	duration	trial_type	correct	window1_response	window1_RT	window2_response	window2_RT	stim_file	calculated_response	calculated_accuracy	calculated_RT
1.084	7.632999999999999	G_P	2.0	n/a	n/a	2.0	4.31	Gram/Gram_run-02/stereo_1MP45U4.wav	2.0	1	2.1789999999999994
8.722999999999999	7.315	G_F	2.0	n/a	n/a	2.0	3.836	Gram/Gram_run-02/stereo_1MF20U4.wav	2.0	1	3.1259999999999994
16.046	6.2829999999999995	G_P	2.0	n/a	n/a	2.0	3.2539999999999996	Gram/Gram_run-02/stereo_1MP34U2.wav	2.0	1	2.1619999999999995
22.334	6.195	G_C	1.0	n/a	n/a	1.0	0.278	Gram/Gram_run-02/CoM06d.wav	1.0	1	1.028
28.539	6.221	G_G	1.0	n/a	n/a	1.0	3.595	Gram/Gram_run-02/stereo_1MF02G1.wav	1.0	1	1.5550000000000002
34.76	5.801	G_F	2.0	n/a	n/a	2.0	3.36	Gram/Gram_run-02/stereo_2MF64U3.wav	2.0	1	4.109999999999999
40.564	6.78	G_C	1.0	n/a	n/a	1.0	0.11	Gram/Gram_run-02/CoM07l.wav	1.0	1	0.86
47.353	6.084	G_F	2.0	n/a	n/a	2.0	2.526	Gram/Gram_run-02/stereo_2MF56U2.wav	2.0	1	3.276
53.441	7.5470000000000015	G_F	2.0	n/a	n/a	2.0	3.802	Gram/Gram_run-02/stereo_1MF21U4.wav	2.0	1	3.051
60.997	6.482	G_G	1.0	n/a	n/a	1.0	4.3439999999999985	Gram/Gram_run-02/stereo_1MF24G4.wav	1.0	1	1.9829999999999988
67.485	6.7810000000000015	G_P	2.0	n/a	n/a	1.0	3.943	Gram/Gram_run-02/stereo_2MP76U1.wav	1.0	0	1.6810000000000005
74.274	6.643	G_P	2.0	n/a	n/a	2.0	3.167	Gram/Gram_run-02/stereo_2MP80U2.wav	2.0	1	2.211
80.929	7.69	G_C	1.0	1.0	0.7340000000000001	1.0	0.884	Gram/Gram_run-02/CoM06e.wav	1.0	1	0.7340000000000001
88.635	6.352	G_F	2.0	n/a	n/a	2.0	2.394	Gram/Gram_run-02/stereo_2MF63U3.wav	2.0	1	3.144
94.99	5.801	G_G	1.0	n/a	n/a	2.0	3.116	Gram/Gram_run-02/stereo_1MF18G3.wav	2.0	0	1.733
100.794	7.1129999999999995	G_P	2.0	n/a	n/a	2.0	3.796	Gram/Gram_run-02/stereo_1MP44U4.wav	2.0	1	1.4389999999999996
107.917	6.78	G_C	1.0	n/a	n/a	1.0	0.105	Gram/Gram_run-02/CoM05b.wav	1.0	1	0.855
114.705	6.7360000000000015	G_F	2.0	n/a	n/a	2.0	2.675	Gram/Gram_run-02/stereo_2MF58U2.wav	2.0	1	3.425
121.444	6.0889999999999995	G_P	2.0	n/a	n/a	2.0	2.9760000000000004	Gram/Gram_run-02/stereo_2MP87U3.wav	2.0	1	1.7640000000000005
127.548	7.6370000000000005	G_P	2.0	n/a	n/a	2.0	4.252	Gram/Gram_run-02/stereo_2MP73U1.wav	2.0	1	2.2249999999999996
135.188	7.305	G_C	1.0	1.0	0.725	1.0	0.586	Gram/Gram_run-02/CoM02l.wav	1.0	1	0.725
142.493	5.983	G_G	1.0	n/a	n/a	1.0	2.904	Gram/Gram_run-02/stereo_1MP42G3.wav	1.0	1	1.9819999999999998
148.481	5.36	G_P	2.0	n/a	n/a	2.0	2.986	Gram/Gram_run-02/stereo_1MP32U2.wav	2.0	1	1.98
153.852	7.145	G_C	1.0	n/a	n/a	1.0	0.109	Gram/Gram_run-02/CoM09e.wav	1.0	1	0.859
161.00799999999995	6.28	G_F	2.0	n/a	n/a	1.0	3.885	Gram/Gram_run-02/stereo_1MF19U4.wav	1.0	0	3.199
167.296	6.63	G_C	1.0	n/a	n/a	1.0	0.065	Gram/Gram_run-02/CoM07b.wav	1.0	1	0.815
173.93400000000003	7.195	G_G	1.0	n/a	n/a	1.0	3.4810000000000003	Gram/Gram_run-02/stereo_2MP89G3.wav	1.0	1	2.1430000000000002
181.14	5.1739999999999995	G_F	2.0	n/a	n/a	2.0	2.5789999999999997	Gram/Gram_run-02/stereo_1MF07U2.wav	2.0	1	3.3289999999999997
186.327	6.944	G_P	2.0	n/a	n/a	2.0	3.902	Gram/Gram_run-02/stereo_2MP88U3.wav	2.0	1	2.859
193.283	6.0889999999999995	G_G	1.0	n/a	n/a	1.0	3.133	Gram/Gram_run-02/stereo_2MF66G3.wav	1.0	1	1.7590000000000003
199.387	6.5	G_C	1.0	1.0	0.74	1.0	0.6970000000000001	Gram/Gram_run-02/CoM01e.wav	1.0	1	0.74
205.892	6.43	G_P	2.0	n/a	n/a	2.0	4.005	Gram/Gram_run-02/stereo_1MP43U4.wav	2.0	1	1.7229999999999999
212.331	6.19	G_G	1.0	n/a	n/a	1.0	3.103	Gram/Gram_run-02/stereo_2MP84G2.wav	1.0	1	2.1710000000000003
218.535	7.114	G_G	1.0	n/a	n/a	1.0	4.124	Gram/Gram_run-02/stereo_1MP29G1.wav	1.0	1	1.9359999999999995
225.658	6.731	G_F	2.0	n/a	n/a	2.0	4.458	Gram/Gram_run-02/stereo_2MF53U1.wav	2.0	1	3.887
232.396	6.015	G_C	1.0	n/a	n/a	1.0	0.068	Gram/Gram_run-02/CoM02d.wav	1.0	1	0.8180000000000001
238.418	7.17	G_G	1.0	n/a	n/a	1.0	4.416	Gram/Gram_run-02/stereo_2MF71G4.wav	1.0	1	2.167
245.59	5.33	G_C	1.0	n/a	n/a	1.0	0.221	Gram/Gram_run-02/CoM06b.wav	1.0	1	0.971
250.927	6.9689999999999985	G_F	2.0	n/a	n/a	2.0	3.64	Gram/Gram_run-02/stereo_2MF54U1.wav	2.0	1	3.0700000000000003
257.899	7.6	G_G	1.0	n/a	n/a	1.0	3.854	Gram/Gram_run-02/stereo_2MF49G1.wav	1.0	1	1.665
