onset	duration	trial_type	correct	window1_response	window1_RT	window2_response	window2_RT	stim_file	calculated_response	calculated_accuracy	calculated_RT
1.084	4.2	S_U	2.0	n/a	n/a	2.0	1.47	Sem/Sem_run-01/stereo_1SU41A0.wav	2.0	1	1.22
5.287000000000001	3.596	S_C	1.0	n/a	n/a	1.0	0.053	Sem/Sem_run-01/ContS29.wav	1.0	1	0.8029999999999999
8.89	3.425	S_U	2.0	n/a	n/a	2.0	1.577	Sem/Sem_run-01/stereo_2SU87A0.wav	2.0	1	1.327
12.325999999999999	3.933	S_H	1.0	n/a	n/a	1.0	1.081	Sem/Sem_run-01/stereo_1SH13A0.wav	1.0	1	0.831
16.262	4.323	S_H	1.0	n/a	n/a	2.0	1.2770000000000001	Sem/Sem_run-01/stereo_1SH05A0.wav	2.0	0	1.0270000000000001
20.599	4.073	S_C	1.0	n/a	n/a	1.0	0.005	Sem/Sem_run-01/ContS31.wav	1.0	1	0.755
24.686	3.869	S_L	1.0	n/a	n/a	1.0	1.479	Sem/Sem_run-01/stereo_2SL63A0.wav	1.0	1	1.229
28.555	3.75	S_L	1.0	n/a	n/a	1.0	1.256	Sem/Sem_run-01/stereo_1SL29A0.wav	1.0	1	1.006
32.308	4.3660000000000005	S_U	2.0	n/a	n/a	2.0	1.248	Sem/Sem_run-01/stereo_2SU78A0.wav	2.0	1	0.998
36.678000000000004	3.3	S_L	1.0	n/a	n/a	1.0	1.124	Sem/Sem_run-01/stereo_1SL17A0.wav	1.0	1	0.8740000000000001
39.981	3.884	S_C	1.0	n/a	n/a	1.0	0.33899999999999997	Sem/Sem_run-01/ContS05.wav	1.0	1	1.089
43.867	4.371	S_H	1.0	n/a	n/a	1.0	1.325	Sem/Sem_run-01/stereo_2SH58A0.wav	1.0	1	1.075
48.254	4.329	S_L	1.0	n/a	n/a	1.0	1.349	Sem/Sem_run-01/stereo_2SL72A0.wav	1.0	1	1.099
52.591	3.94	S_H	1.0	n/a	n/a	1.0	1.405	Sem/Sem_run-01/stereo_2SH57A0.wav	1.0	1	1.155
56.544	4.2	S_U	2.0	n/a	n/a	2.0	1.1640000000000001	Sem/Sem_run-01/stereo_2SU83A0.wav	2.0	1	0.914
60.747	3.474	S_C	1.0	n/a	n/a	1.0	0.41100000000000003	Sem/Sem_run-01/ContS11.wav	1.0	1	1.161
64.233	4.271	S_L	1.0	n/a	n/a	2.0	1.247	Sem/Sem_run-01/stereo_1SL26A0.wav	2.0	0	0.997
68.52	3.91	S_L	1.0	n/a	n/a	1.0	1.3980000000000001	Sem/Sem_run-01/stereo_1SL25A0.wav	1.0	1	1.148
72.439	4.479	S_C	1.0	n/a	n/a	1.0	0.031	Sem/Sem_run-01/ContS25.wav	1.0	1	0.7809999999999999
76.926	3.378	S_U	2.0	n/a	n/a	2.0	1.3430000000000002	Sem/Sem_run-01/stereo_2SU81A0.wav	2.0	1	1.0930000000000002
80.312	3.42	S_L	1.0	n/a	n/a	1.0	1.2830000000000001	Sem/Sem_run-01/stereo_1SL27A0.wav	1.0	1	1.033
83.74799999999998	4.3439999999999985	S_L	1.0	n/a	n/a	1.0	1.28	Sem/Sem_run-01/stereo_1SL30A0.wav	1.0	1	1.03
88.101	3.909	S_L	1.0	n/a	n/a	1.0	1.119	Sem/Sem_run-01/stereo_2SL71A0.wav	1.0	1	0.8690000000000001
92.021	3.867	S_H	1.0	n/a	n/a	1.0	1.214	Sem/Sem_run-01/stereo_1SH04A0.wav	1.0	1	0.964
95.891	3.828	S_U	2.0	n/a	n/a	2.0	1.14	Sem/Sem_run-01/stereo_1SU37A0.wav	2.0	1	0.8899999999999999
99.727	4.565	S_C	1.0	n/a	n/a	1.0	0.128	Sem/Sem_run-01/ContS35.wav	1.0	1	0.878
104.29700000000001	3.3	S_U	2.0	n/a	n/a	2.0	1.2209999999999999	Sem/Sem_run-01/stereo_1SU35A0.wav	2.0	1	0.971
107.6	3.477	S_L	1.0	n/a	n/a	1.0	1.286	Sem/Sem_run-01/stereo_2SL65A0.wav	1.0	1	1.036
111.086	3.83	S_H	1.0	n/a	n/a	1.0	1.008	Sem/Sem_run-01/stereo_1SH07A0.wav	1.0	1	0.758
114.92200000000001	4.3439999999999985	S_C	1.0	1.0	0.747	1.0	0.626	Sem/Sem_run-01/ContS07.wav	1.0	1	0.747
119.275	3.5	S_H	1.0	n/a	n/a	1.0	1.393	Sem/Sem_run-01/stereo_1SH03A0.wav	1.0	1	1.143
122.77799999999999	3.919	S_U	2.0	n/a	n/a	2.0	1.514	Sem/Sem_run-01/stereo_1SU45A0.wav	2.0	1	1.264
126.698	3.5	S_H	1.0	n/a	n/a	1.0	1.215	Sem/Sem_run-01/stereo_1SH06A0.wav	1.0	1	0.965
130.201	3.392	S_L	1.0	n/a	n/a	1.0	1.077	Sem/Sem_run-01/stereo_2SL62A0.wav	1.0	1	0.8270000000000001
133.60299999999998	3.54	S_C	1.0	1.0	0.747	1.0	0.547	Sem/Sem_run-01/ContS19.wav	1.0	1	0.747
137.156	4.4	S_H	1.0	n/a	n/a	1.0	1.087	Sem/Sem_run-01/stereo_1SH15A0.wav	1.0	1	0.8370000000000001
141.559	3.342	S_H	1.0	n/a	n/a	1.0	1.22	Sem/Sem_run-01/stereo_1SH11A0.wav	1.0	1	0.97
144.912	3.385	S_U	2.0	n/a	n/a	2.0	1.2919999999999998	Sem/Sem_run-01/stereo_1SU44A0.wav	2.0	1	1.0419999999999998
148.298	3.4160000000000004	S_H	1.0	n/a	n/a	1.0	1.198	Sem/Sem_run-01/stereo_2SH56A0.wav	1.0	1	0.948
151.717	3.849	S_U	2.0	n/a	n/a	2.0	1.369	Sem/Sem_run-01/stereo_2SU82A0.wav	2.0	1	1.119
155.57	3.934	S_C	1.0	n/a	n/a	1.0	0.001	Sem/Sem_run-01/ContS13.wav	1.0	1	0.7509999999999999
159.507	4.309	S_L	1.0	n/a	n/a	1.0	1.056	Sem/Sem_run-01/stereo_2SL64A0.wav	1.0	1	0.8059999999999999
163.827	4.413	S_C	1.0	1.0	0.72	1.0	0.5489999999999999	Sem/Sem_run-01/ContS17.wav	1.0	1	0.72
168.247	4.2	S_U	2.0	n/a	n/a	2.0	1.218	Sem/Sem_run-01/stereo_2SU90A0.wav	2.0	1	0.968
172.45	3.846	S_U	2.0	n/a	n/a	2.0	1.4280000000000002	Sem/Sem_run-01/stereo_2SU88A0.wav	2.0	1	1.1780000000000002
176.303	3.3939999999999997	S_C	1.0	n/a	n/a	1.0	0.035	Sem/Sem_run-01/ContS01.wav	1.0	1	0.785
179.706	4.013	S_C	1.0	n/a	n/a	1.0	0.032	Sem/Sem_run-01/ContS23.wav	1.0	1	0.782
183.725	4.227	S_H	1.0	n/a	n/a	1.0	1.18	Sem/Sem_run-01/stereo_1SH08A0.wav	1.0	1	0.93
