onset	duration	trial_type	correct	window1_response	window1_RT	window2_response	window2_RT	stim_file	calculated_response	calculated_accuracy	calculated_RT
1.0924	3.5	P_R	1.0	n/a	n/a	1.0	1.234	Phon/Phon_run-02/stereo_PR20.wav	1.0	1	0.984
4.595	4.235	P_O	1.0	n/a	n/a	1.0	1.253	Phon/Phon_run-02/PC034.wav	1.0	1	1.003
8.8325	3.375	P_R	1.0	n/a	n/a	1.0	1.254	Phon/Phon_run-02/stereo_PR13.wav	1.0	1	1.004
12.2183	3.474	P_C	1.0	n/a	n/a	1.0	0.035	Phon/Phon_run-02/ContS12.wav	1.0	1	0.785
15.7041	3.875	P_U	2.0	n/a	n/a	2.0	1.225	Phon/Phon_run-02/PM025.wav	2.0	1	0.9750000000000001
19.5903	3.726	P_R	1.0	n/a	n/a	1.0	1.24	Phon/Phon_run-02/stereo_PR22.wav	1.0	1	0.99
23.3263	3.451	P_O	1.0	n/a	n/a	1.0	1.276	Phon/Phon_run-02/PC014.wav	1.0	1	1.026
26.7799	3.779	P_C	1.0	1.0	0.703	n/a	n/a	Phon/Phon_run-02/ContS02.wav	1.0	1	0.703
30.566	3.821	P_U	2.0	n/a	n/a	2.0	1.733	Phon/Phon_run-02/stereo_PU18.wav	2.0	1	1.483
34.402	3.49	P_U	2.0	n/a	n/a	2.0	1.7180000000000002	Phon/Phon_run-02/stereo_PU12.wav	2.0	1	1.4680000000000002
37.9046	4.38	P_C	1.0	n/a	n/a	1.0	0.397	Phon/Phon_run-02/ContS32.wav	1.0	1	1.147
42.291000000000004	4.0969999999999995	P_R	1.0	n/a	n/a	1.0	1.2229999999999999	Phon/Phon_run-02/stereo_PR16.wav	1.0	1	0.9730000000000001
46.394	3.5	P_O	1.0	n/a	n/a	1.0	1.625	Phon/Phon_run-02/PC022.wav	1.0	1	1.375
49.8966	4.0760000000000005	P_R	1.0	n/a	n/a	1.0	1.319	Phon/Phon_run-02/stereo_PR08.wav	1.0	1	1.069
53.983000000000004	3.5	P_O	1.0	n/a	n/a	1.0	1.3840000000000001	Phon/Phon_run-02/PC028.wav	1.0	1	1.134
57.4856	3.5	P_U	2.0	n/a	n/a	2.0	1.415	Phon/Phon_run-02/stereo_PU27.wav	2.0	1	1.165
60.9881	3.819	P_C	1.0	1.0	0.545	1.0	0.39399999999999996	Phon/Phon_run-02/ContS06.wav	1.0	1	0.545
64.8086	4.25	P_O	1.0	n/a	n/a	1.0	1.331	Phon/Phon_run-02/PC031.wav	1.0	1	1.081
69.062	3.662	P_C	1.0	n/a	n/a	1.0	0.14	Phon/Phon_run-02/ContS36.wav	1.0	1	0.89
72.7312	3.823	P_O	1.0	n/a	n/a	1.0	1.496	Phon/Phon_run-02/PC023.wav	1.0	1	1.246
76.5674	4.323	P_C	1.0	n/a	n/a	1.0	0.275	Phon/Phon_run-02/ContS24.wav	1.0	1	1.025
80.9038	3.865	P_U	2.0	n/a	n/a	2.0	1.337	Phon/Phon_run-02/PM004.wav	2.0	1	1.087
84.7733	3.875	P_O	1.0	n/a	n/a	1.0	1.508	Phon/Phon_run-02/PC007.wav	1.0	1	1.258
88.6594	4.25	P_U	2.0	n/a	n/a	2.0	1.406	Phon/Phon_run-02/PM011.wav	2.0	1	1.156
92.9126	4.362	P_C	1.0	n/a	n/a	1.0	0.34700000000000003	Phon/Phon_run-02/ContS30.wav	1.0	1	1.097
97.2825	3.875	P_O	1.0	n/a	n/a	1.0	1.455	Phon/Phon_run-02/PC030.wav	1.0	1	1.205
101.1687	3.3360000000000003	P_R	1.0	n/a	n/a	1.0	1.7819999999999998	Phon/Phon_run-02/stereo_PR05.wav	1.0	1	1.5319999999999998
104.5077	4.113	P_U	2.0	n/a	n/a	2.0	1.9280000000000002	Phon/Phon_run-02/stereo_PU01.wav	2.0	1	1.678
108.6273	4.1739999999999995	P_U	2.0	n/a	n/a	1.0	1.754	Phon/Phon_run-02/PM029.wav	1.0	0	1.504
112.8137	3.4539999999999997	P_C	1.0	n/a	n/a	n/a	n/a	Phon/Phon_run-02/ContS08.wav	n/a	0	n/a
116.2828	3.446	P_R	1.0	n/a	n/a	1.0	1.0979999999999999	Phon/Phon_run-02/stereo_PR30.wav	1.0	1	0.8480000000000001
119.7352	3.85	P_R	1.0	n/a	n/a	1.0	1.114	Phon/Phon_run-02/stereo_PR07.wav	1.0	1	0.8640000000000001
123.588	3.438	P_U	2.0	n/a	n/a	2.0	1.135	Phon/Phon_run-02/stereo_PU02.wav	2.0	1	0.885
127.0406	3.915	P_C	1.0	n/a	n/a	1.0	0.228	Phon/Phon_run-02/ContS20.wav	1.0	1	0.978
130.9601	3.487	P_U	2.0	n/a	n/a	2.0	1.771	Phon/Phon_run-02/PM021.wav	2.0	1	1.521
134.46200000000002	3.965	P_C	1.0	n/a	n/a	n/a	n/a	Phon/Phon_run-02/ContS26.wav	n/a	0	n/a
138.4315	3.792	P_R	1.0	n/a	n/a	1.0	1.585	Phon/Phon_run-02/stereo_PR31.wav	1.0	1	1.335
142.2343	4.135	P_O	1.0	n/a	n/a	2.0	1.828	Phon/Phon_run-02/PC024.wav	2.0	0	1.578
146.3717	3.875	P_U	2.0	n/a	n/a	2.0	1.714	Phon/Phon_run-02/PM010.wav	2.0	1	1.464
150.2579	3.875	P_O	1.0	n/a	n/a	1.0	1.4340000000000002	Phon/Phon_run-02/PC015.wav	1.0	1	1.1840000000000002
154.144	4.245	P_C	1.0	n/a	n/a	1.0	0.11599999999999999	Phon/Phon_run-02/ContS14.wav	1.0	1	0.866
158.3971	3.854	P_R	1.0	n/a	n/a	1.0	1.374	Phon/Phon_run-02/stereo_PR14.wav	1.0	1	1.124
162.2662	4.239	P_O	1.0	n/a	n/a	2.0	1.26	Phon/Phon_run-02/PC008.wav	2.0	0	1.01
166.5192	4.25	P_U	2.0	n/a	n/a	2.0	1.3769999999999998	Phon/Phon_run-02/stereo_PU11.wav	2.0	1	1.1269999999999998
170.7726	3.523	P_C	1.0	n/a	n/a	1.0	0.968	Phon/Phon_run-02/ContS18.wav	1.0	1	1.718
174.3085	3.429	P_O	1.0	n/a	n/a	2.0	1.367	Phon/Phon_run-02/PC006.wav	2.0	0	1.117
177.7443	4.18	P_R	1.0	n/a	n/a	1.0	1.19	Phon/Phon_run-02/stereo_PR32.wav	1.0	1	0.94
181.9307	4.104	P_R	1.0	n/a	n/a	1.0	1.121	Phon/Phon_run-02/stereo_PR24.wav	1.0	1	0.871
