onset	duration	trial_type	correct	window1_response	window1_RT	window2_response	window2_RT	stim_file	calculated_response	calculated_accuracy	calculated_RT
1.084	7.034	SP_W	1.0	n/a	n/a	1.0	3.822	Plaus/Plaus_run-01/stereo_PW85.wav	1.0	1	1.6749999999999998
8.123	5.641	SP_I	2.0	n/a	n/a	2.0	2.153	Plaus/Plaus_run-01/stereo_PI11.wav	2.0	1	1.2329999999999999
13.777	6.77	SP_C	1.0	n/a	n/a	1.0	0.29600000000000004	Plaus/Plaus_run-01/CoM08b.wav	1.0	1	1.046
20.549	7.327000000000001	SP_W	1.0	n/a	n/a	1.0	3.55	Plaus/Plaus_run-01/stereo_PW72.wav	1.0	1	1.5699999999999998
27.888	6.145	SP_C	1.0	n/a	n/a	1.0	0.733	Plaus/Plaus_run-01/CoM05d.wav	1.0	1	1.483
34.043	5.181	SP_I	2.0	n/a	n/a	2.0	2.593	Plaus/Plaus_run-01/stereo_PI65.wav	2.0	1	1.6509999999999998
39.23	5.092	SP_S	1.0	n/a	n/a	1.0	2.32	Plaus/Plaus_run-01/stereo_PC13.wav	1.0	1	1.2569999999999997
44.334	7.355	SP_C	1.0	n/a	n/a	1.0	0.22699999999999998	Plaus/Plaus_run-01/CoM06l.wav	1.0	1	0.977
51.69	7.47	SP_I	2.0	n/a	n/a	2.0	3.82	Plaus/Plaus_run-01/stereo_PI90.wav	2.0	1	1.649
59.162	7.399	SP_S	1.0	n/a	n/a	1.0	3.635	Plaus/Plaus_run-01/stereo_PC35.wav	1.0	1	1.3679999999999999
66.568	5.685	SP_S	1.0	n/a	n/a	1.0	2.508	Plaus/Plaus_run-01/stereo_PC47.wav	1.0	1	1.4989999999999999
72.256	5.669	SP_W	1.0	n/a	n/a	1.0	2.9330000000000003	Plaus/Plaus_run-01/stereo_PW19.wav	1.0	1	1.9270000000000003
77.92699999999998	7.9	SP_C	1.0	n/a	n/a	1.0	1.371	Plaus/Plaus_run-01/CoM03l.wav	1.0	1	2.121
85.833	5.145	SP_I	2.0	n/a	n/a	2.0	2.786	Plaus/Plaus_run-01/stereo_PI09.wav	2.0	1	1.7780000000000002
90.987	6.9170000000000025	SP_W	1.0	n/a	n/a	1.0	3.78	Plaus/Plaus_run-01/stereo_PW30.wav	1.0	1	1.6599999999999997
97.909	5.738	SP_S	1.0	n/a	n/a	1.0	2.6630000000000003	Plaus/Plaus_run-01/stereo_PC14.wav	1.0	1	1.4920000000000002
103.647	6.276	SP_W	1.0	n/a	n/a	2.0	2.588	Plaus/Plaus_run-01/stereo_PW50.wav	2.0	0	1.766
109.935	5.49	SP_C	1.0	n/a	n/a	n/a	n/a	Plaus/Plaus_run-01/CoM03d.wav	n/a	0	n/a
115.439	5.7	SP_I	2.0	n/a	n/a	2.0	2.088	Plaus/Plaus_run-01/stereo_PI67.wav	2.0	1	1.197
121.144	7.237	SP_S	1.0	n/a	n/a	1.0	3.5069999999999997	Plaus/Plaus_run-01/stereo_PC68.wav	1.0	1	1.541
128.38299999999998	6.49	SP_C	1.0	n/a	n/a	n/a	n/a	Plaus/Plaus_run-01/CoM03b.wav	n/a	0	n/a
134.888	6.25	SP_W	1.0	n/a	n/a	2.0	3.134	Plaus/Plaus_run-01/stereo_PW61.wav	2.0	0	2.154
141.142	6.952999999999999	SP_I	2.0	n/a	n/a	2.0	3.917	Plaus/Plaus_run-01/stereo_PI32.wav	2.0	1	1.7519999999999998
148.09799999999996	7.085	SP_C	1.0	n/a	n/a	1.0	4.2410000000000005	Plaus/Plaus_run-01/CoM02e.wav	1.0	1	4.9910000000000005
155.187	6.3610000000000015	SP_S	1.0	n/a	n/a	2.0	3.677	Plaus/Plaus_run-01/stereo_PC24.wav	2.0	0	1.419
161.558	5.1110000000000015	SP_W	1.0	n/a	n/a	1.0	3.1919999999999997	Plaus/Plaus_run-01/stereo_PW53.wav	1.0	1	2.1780000000000004
166.679	6.2860000000000005	SP_I	2.0	n/a	n/a	2.0	3.8569999999999998	Plaus/Plaus_run-01/stereo_PI42.wav	2.0	1	1.6610000000000005
172.967	6.577000000000001	SP_S	1.0	n/a	n/a	1.0	3.14	Plaus/Plaus_run-01/stereo_PC57.wav	1.0	1	1.945
179.55599999999995	5.273	SP_W	1.0	n/a	n/a	2.0	3.2260000000000004	Plaus/Plaus_run-01/stereo_PW18.wav	2.0	0	2.059
184.843	5.77	SP_C	1.0	n/a	n/a	n/a	n/a	Plaus/Plaus_run-01/CoM09b.wav	n/a	0	n/a
190.614	6.731	SP_S	1.0	n/a	n/a	2.0	4.0969999999999995	Plaus/Plaus_run-01/stereo_PC26.wav	2.0	0	1.9970000000000003
197.353	7.212999999999999	SP_I	2.0	n/a	n/a	2.0	3.733	Plaus/Plaus_run-01/stereo_PI33.wav	2.0	1	1.75
204.575	5.181	SP_S	1.0	n/a	n/a	1.0	2.6489999999999996	Plaus/Plaus_run-01/stereo_PC01.wav	1.0	1	1.7080000000000002
209.762	6.238	SP_S	1.0	n/a	n/a	1.0	4.045	Plaus/Plaus_run-01/stereo_PC36.wav	1.0	1	1.9989999999999997
216.0	7.73	SP_C	1.0	n/a	n/a	1.0	0.769	Plaus/Plaus_run-01/CoM10e.wav	1.0	1	1.5190000000000001
223.74	6.843	SP_I	2.0	n/a	n/a	2.0	3.6039999999999996	Plaus/Plaus_run-01/stereo_PI45.wav	2.0	1	1.4770000000000003
230.595	6.101	SP_W	1.0	n/a	n/a	1.0	3.403	Plaus/Plaus_run-01/stereo_PW28.wav	1.0	1	1.4709999999999996
236.7	7.419	SP_W	1.0	n/a	n/a	1.0	4.5680000000000005	Plaus/Plaus_run-01/stereo_PW86.wav	1.0	1	2.532000000000001
244.122	6.54	SP_C	1.0	n/a	n/a	1.0	0.879	Plaus/Plaus_run-01/CoM05e.wav	1.0	1	1.629
250.677	6.247000000000001	SP_I	2.0	n/a	n/a	2.0	2.9739999999999998	Plaus/Plaus_run-01/stereo_PI12.wav	2.0	1	2.103
