onset	duration	trial_type	correct	window1_response	window1_RT	window2_response	window2_RT	stim_file	calculated_response	calculated_accuracy	calculated_RT
1.0925	3.4539999999999997	P_R	1.0	n/a	n/a	1.0	1.7069999999999999	Phon/Phon_run-01/stereo_PR01.wav	1.0	1	1.457
4.5615	3.767	P_O	1.0	n/a	n/a	1.0	1.0290000000000001	Phon/Phon_run-01/PC018.wav	1.0	1	0.7789999999999999
8.3317	3.391	P_O	1.0	n/a	n/a	n/a	n/a	Phon/Phon_run-01/PC009.wav	n/a	0	n/a
11.7341	4.374	P_C	1.0	n/a	n/a	1.0	0.134	Phon/Phon_run-01/ContS11.wav	1.0	1	0.884
16.1207	3.345	P_U	2.0	n/a	n/a	2.0	1.719	Phon/Phon_run-01/PM002.wav	2.0	1	1.469
19.473	4.4510000000000005	P_C	1.0	n/a	n/a	1.0	0.659	Phon/Phon_run-01/ContS21.wav	1.0	1	1.409
23.9275	4.382	P_O	1.0	n/a	n/a	1.0	1.1340000000000001	Phon/Phon_run-01/PC005.wav	1.0	1	0.8839999999999999
28.314	3.3	P_U	2.0	n/a	n/a	2.0	1.3019999999999998	Phon/Phon_run-01/stereo_PU26.wav	2.0	1	1.0519999999999998
31.6165	4.324	P_C	1.0	n/a	n/a	1.0	0.802	Phon/Phon_run-01/ContS03.wav	1.0	1	1.552
35.9529	4.378	P_R	1.0	n/a	n/a	1.0	1.314	Phon/Phon_run-01/stereo_PR29.wav	1.0	1	1.064
40.3393	3.4810000000000003	P_U	2.0	n/a	n/a	2.0	1.395	Phon/Phon_run-01/PM020.wav	2.0	1	1.145
43.8252	4.393	P_O	1.0	n/a	n/a	1.0	1.262	Phon/Phon_run-01/PC027.wav	1.0	1	1.012
48.2284	4.4	P_R	1.0	n/a	n/a	1.0	1.32	Phon/Phon_run-01/stereo_PR11.wav	1.0	1	1.07
52.6316	3.884	P_C	1.0	n/a	n/a	1.0	1.544	Phon/Phon_run-01/ContS05.wav	1.0	1	2.294
56.5186	3.891	P_U	2.0	n/a	n/a	2.0	1.274	Phon/Phon_run-01/stereo_PU28.wav	2.0	1	1.024
60.4213	4.4	P_O	1.0	n/a	n/a	1.0	1.501	Phon/Phon_run-01/PC013.wav	1.0	1	1.251
64.8247	3.513	P_C	1.0	n/a	n/a	1.0	0.35200000000000004	Phon/Phon_run-01/ContS17.wav	1.0	1	1.102
68.3439	4.4	P_U	2.0	n/a	n/a	1.0	1.9240000000000002	Phon/Phon_run-01/PM027.wav	1.0	0	1.674
72.7471	4.4	P_O	1.0	n/a	n/a	1.0	1.376	Phon/Phon_run-01/PC021.wav	1.0	1	1.126
77.1504	4.496	P_C	1.0	n/a	n/a	1.0	1.203	Phon/Phon_run-01/ContS29.wav	1.0	1	1.953
81.6536	3.3680000000000003	P_R	1.0	n/a	n/a	1.0	1.371	Phon/Phon_run-01/stereo_PR25.wav	1.0	1	1.121
85.0239	3.95	P_O	1.0	n/a	n/a	1.0	2.0069999999999997	Phon/Phon_run-01/PC012.wav	1.0	1	1.7570000000000001
88.9768	3.95	P_U	2.0	n/a	n/a	2.0	1.59	Phon/Phon_run-01/PM003.wav	2.0	1	1.34
92.9297	3.939	P_O	1.0	n/a	n/a	1.0	1.445	Phon/Phon_run-01/PC004.wav	1.0	1	1.195
96.8826	3.59	P_C	1.0	n/a	n/a	1.0	0.191	Phon/Phon_run-01/ContS27.wav	1.0	1	0.9410000000000001
100.4851	4.296	P_U	2.0	n/a	n/a	2.0	1.46	Phon/Phon_run-01/stereo_PU21.wav	2.0	1	1.21
104.7882	3.862	P_R	1.0	n/a	n/a	2.0	1.608	Phon/Phon_run-01/stereo_PR26.wav	2.0	0	1.358
108.6576	3.95	P_O	1.0	n/a	n/a	1.0	1.3259999999999998	Phon/Phon_run-01/PC026.wav	1.0	1	1.0759999999999998
112.6107	3.5	P_O	1.0	n/a	n/a	1.0	1.3359999999999999	Phon/Phon_run-01/PC025.wav	1.0	1	1.086
116.1133	4.013	P_C	1.0	n/a	n/a	1.0	1.167	Phon/Phon_run-01/ContS23.wav	1.0	1	1.917
120.1329	3.792	P_R	1.0	n/a	n/a	1.0	1.365	Phon/Phon_run-01/stereo_PR18.wav	1.0	1	1.115
123.9359	3.346	P_U	2.0	n/a	n/a	2.0	1.253	Phon/Phon_run-01/stereo_PU19.wav	2.0	1	1.003
127.2885	3.891	P_R	1.0	n/a	n/a	1.0	1.5419999999999998	Phon/Phon_run-01/stereo_PR03.wav	1.0	1	1.2919999999999998
131.1913	3.355	P_O	1.0	n/a	n/a	2.0	1.861	Phon/Phon_run-01/PC003.wav	2.0	0	1.611
134.5604	3.951	P_C	1.0	n/a	n/a	1.0	0.35200000000000004	Phon/Phon_run-01/ContS15.wav	1.0	1	1.102
138.5144	3.74	P_U	2.0	n/a	n/a	2.0	1.3130000000000002	Phon/Phon_run-01/stereo_PU16.wav	2.0	1	1.0630000000000002
142.2671	3.95	P_R	1.0	n/a	n/a	1.0	1.122	Phon/Phon_run-01/stereo_PR10.wav	1.0	1	0.8720000000000001
146.22	3.464	P_C	1.0	n/a	n/a	1.0	0.985	Phon/Phon_run-01/ContS09.wav	1.0	1	1.7349999999999999
149.6892	4.275	P_R	1.0	n/a	n/a	1.0	1.5490000000000002	Phon/Phon_run-01/stereo_PR04.wav	1.0	1	1.2990000000000002
153.9756	3.95	P_U	2.0	n/a	n/a	n/a	n/a	Phon/Phon_run-01/PM023.wav	n/a	0	n/a
157.9284	4.4	P_U	2.0	n/a	n/a	1.0	1.5659999999999998	Phon/Phon_run-01/PM001.wav	1.0	0	1.3159999999999998
162.3319	3.665	P_C	1.0	n/a	n/a	1.0	0.266	Phon/Phon_run-01/ContS35.wav	1.0	1	1.016
166.0011	3.463	P_O	1.0	n/a	n/a	1.0	1.364	Phon/Phon_run-01/PC017.wav	1.0	1	1.114
169.4703	4.332	P_R	1.0	n/a	n/a	1.0	1.215	Phon/Phon_run-01/stereo_PR19.wav	1.0	1	0.9650000000000001
173.8067	4.083	P_C	1.0	n/a	n/a	1.0	0.809	Phon/Phon_run-01/ContS33.wav	1.0	1	1.5590000000000002
177.893	3.5	P_R	1.0	n/a	n/a	2.0	1.324	Phon/Phon_run-01/stereo_PR17.wav	2.0	0	1.074
181.3956	4.2669999999999995	P_U	2.0	n/a	n/a	1.0	1.22	Phon/Phon_run-01/PM009.wav	1.0	0	0.97
185.6658	3.4389999999999996	P_R	1.0	n/a	n/a	1.0	1.94	Phon/Phon_run-01/stereo_PR09.wav	1.0	1	1.69
