onset	duration	trial_type	correct	window1_response	window1_RT	window2_response	window2_RT	stim_file	calculated_response	calculated_accuracy	calculated_RT
1.067	4.2010000000000005	S_U	2.0	n/a	n/a	2.0	1.8	Sem/Sem_run-02/stereo_1SU33A0.wav	2.0	1	1.55
5.271	3.486	S_U	2.0	n/a	n/a	2.0	2.035	Sem/Sem_run-02/stereo_2SU85A0.wav	2.0	1	1.785
8.757	3.8539999999999996	S_H	1.0	n/a	n/a	1.0	1.492	Sem/Sem_run-02/stereo_2SH50A0.wav	1.0	1	1.242
12.626	3.454	S_C	1.0	n/a	n/a	1.0	0.03	Sem/Sem_run-02/ContS08.wav	1.0	1	0.78
16.096	4.33	S_H	1.0	n/a	n/a	1.0	1.204	Sem/Sem_run-02/stereo_1SH10A0.wav	1.0	1	0.954
20.432	3.872	S_L	1.0	n/a	n/a	1.0	1.463	Sem/Sem_run-02/stereo_2SL61A0.wav	1.0	1	1.213
24.31900000000001	3.885	S_L	1.0	n/a	n/a	1.0	1.4340000000000002	Sem/Sem_run-02/stereo_1SL23A0.wav	1.0	1	1.1840000000000002
28.205	4.2	S_U	2.0	n/a	n/a	2.0	1.141	Sem/Sem_run-02/stereo_1SU42A0.wav	2.0	1	0.8909999999999999
32.408	3.321	S_L	1.0	n/a	n/a	1.0	1.1840000000000002	Sem/Sem_run-02/stereo_1SL16A0.wav	1.0	1	0.9340000000000002
35.744	3.59	S_C	1.0	1.0	0.679	1.0	0.84	Sem/Sem_run-02/ContS26.wav	1.0	1	0.679
39.347	4.4	S_H	1.0	n/a	n/a	1.0	1.575	Sem/Sem_run-02/stereo_2SH60A0.wav	1.0	1	1.325
43.75	4.311	S_L	1.0	n/a	n/a	1.0	1.4809999999999999	Sem/Sem_run-02/stereo_2SL75A0.wav	1.0	1	1.231
48.07	3.912	S_H	1.0	n/a	n/a	1.0	1.4680000000000002	Sem/Sem_run-02/stereo_2SH59A0.wav	1.0	1	1.2180000000000002
51.99	4.4	S_U	2.0	n/a	n/a	2.0	1.9269999999999998	Sem/Sem_run-02/stereo_2SU84A0.wav	2.0	1	1.6769999999999998
56.394	3.4210000000000003	S_U	2.0	n/a	n/a	2.0	1.505	Sem/Sem_run-02/stereo_1SU43A0.wav	2.0	1	1.255
59.83	3.8539999999999996	S_C	1.0	1.0	0.705	1.0	0.85	Sem/Sem_run-02/ContS02.wav	1.0	1	0.705
63.699	4.37	S_L	1.0	n/a	n/a	1.0	2.2430000000000003	Sem/Sem_run-02/stereo_1SL19A0.wav	1.0	1	1.9930000000000003
68.069	3.862	S_L	1.0	n/a	n/a	1.0	1.504	Sem/Sem_run-02/stereo_1SL18A0.wav	1.0	1	1.254
71.939	4.462	S_C	1.0	1.0	0.564	1.0	0.903	Sem/Sem_run-02/ContS22.wav	1.0	1	0.564
76.40899999999998	3.406	S_L	1.0	n/a	n/a	1.0	1.168	Sem/Sem_run-02/stereo_1SL21A0.wav	1.0	1	0.9179999999999999
79.828	3.355	S_U	2.0	n/a	n/a	1.0	1.99	Sem/Sem_run-02/stereo_1SU36A0.wav	1.0	0	1.74
83.198	4.324	S_C	1.0	1.0	0.623	1.0	1.104	Sem/Sem_run-02/ContS04.wav	1.0	1	0.623
87.53399999999998	4.253	S_L	1.0	n/a	n/a	1.0	1.3	Sem/Sem_run-02/stereo_1SL24A0.wav	1.0	1	1.05
91.788	3.839	S_L	1.0	n/a	n/a	1.0	1.5819999999999999	Sem/Sem_run-02/stereo_2SL70A0.wav	1.0	1	1.332
95.641	4.395	S_C	1.0	1.0	0.695	n/a	n/a	Sem/Sem_run-02/ContS14.wav	1.0	1	0.695
100.044	3.8739999999999997	S_H	1.0	n/a	n/a	1.0	1.402	Sem/Sem_run-02/stereo_1SH09A0.wav	1.0	1	1.152
103.93	3.75	S_U	2.0	n/a	n/a	2.0	1.584	Sem/Sem_run-02/stereo_1SU32A0.wav	2.0	1	1.334
107.683	3.641	S_C	1.0	n/a	n/a	1.0	0.075	Sem/Sem_run-02/ContS34.wav	1.0	1	0.825
111.336	3.338	S_U	2.0	n/a	n/a	2.0	1.147	Sem/Sem_run-02/stereo_1SU31A0.wav	2.0	1	0.897
114.689	3.45	S_L	1.0	n/a	n/a	1.0	1.2819999999999998	Sem/Sem_run-02/stereo_2SL68A0.wav	1.0	1	1.0319999999999998
118.141	3.8510000000000004	S_H	1.0	n/a	n/a	1.0	1.906	Sem/Sem_run-02/stereo_1SH14A0.wav	1.0	1	1.656
121.994	3.459	S_H	1.0	n/a	n/a	1.0	1.168	Sem/Sem_run-02/stereo_1SH01A0.wav	1.0	1	0.9179999999999999
125.464	3.512	S_C	1.0	1.0	0.662	1.0	1.295	Sem/Sem_run-02/ContS16.wav	1.0	1	0.662
128.983	3.489	S_H	1.0	n/a	n/a	1.0	1.5190000000000001	Sem/Sem_run-02/stereo_1SH12A0.wav	1.0	1	1.269
132.486	3.8489999999999998	S_U	2.0	n/a	n/a	2.0	1.215	Sem/Sem_run-02/stereo_2SU86A0.wav	2.0	1	0.965
136.339	3.46	S_L	1.0	n/a	n/a	1.0	1.1440000000000001	Sem/Sem_run-02/stereo_1SL28A0.wav	1.0	1	0.8939999999999999
139.808	4.53	S_C	1.0	1.0	0.579	1.0	0.8240000000000001	Sem/Sem_run-02/ContS32.wav	1.0	1	0.579
144.345	4.351	S_H	1.0	n/a	n/a	1.0	1.439	Sem/Sem_run-02/stereo_2SH52A0.wav	1.0	1	1.189
148.69799999999995	3.48	S_H	1.0	n/a	n/a	1.0	1.1320000000000001	Sem/Sem_run-02/stereo_2SH47A0.wav	1.0	1	0.8819999999999999
152.184	3.3	S_H	1.0	n/a	n/a	1.0	1.193	Sem/Sem_run-02/stereo_2SH53A0.wav	1.0	1	0.943
155.487	3.847	S_U	2.0	n/a	n/a	2.0	1.994	Sem/Sem_run-02/stereo_1SU39A0.wav	2.0	1	1.744
159.34	3.923	S_C	1.0	1.0	0.6859999999999999	1.0	0.857	Sem/Sem_run-02/ContS10.wav	1.0	1	0.6859999999999999
163.276	3.7510000000000003	S_U	2.0	n/a	n/a	2.0	1.96	Sem/Sem_run-02/stereo_2SU80A0.wav	2.0	1	1.71
167.02900000000002	4.2	S_L	1.0	n/a	n/a	1.0	1.5759999999999998	Sem/Sem_run-02/stereo_2SL66A0.wav	1.0	1	1.3259999999999998
171.232	3.99	S_C	1.0	1.0	0.56	1.0	0.867	Sem/Sem_run-02/ContS20.wav	1.0	1	0.56
175.235	4.041	S_C	1.0	1.0	0.695	1.0	1.125	Sem/Sem_run-02/ContS28.wav	1.0	1	0.695
179.28900000000004	4.2	S_U	2.0	n/a	n/a	1.0	2.23	Sem/Sem_run-02/stereo_2SU89A0.wav	1.0	0	1.98
183.492	4.368	S_H	1.0	n/a	n/a	1.0	1.3030000000000002	Sem/Sem_run-02/stereo_2SH46A0.wav	1.0	1	1.0530000000000002
