onset	duration	trial_type	correct	window1_response	window1_RT	window2_response	window2_RT	stim_file	calculated_response	calculated_accuracy	calculated_RT
1.085	4.2010000000000005	S_U	2.0	n/a	n/a	2.0	1.633	Sem/Sem_run-02/stereo_1SU33A0.wav	2.0	1	1.383
5.287999999999999	3.486	S_U	2.0	n/a	n/a	2.0	1.375	Sem/Sem_run-02/stereo_2SU85A0.wav	2.0	1	1.125
8.774	3.8539999999999996	S_H	1.0	n/a	n/a	2.0	1.6880000000000002	Sem/Sem_run-02/stereo_2SH50A0.wav	2.0	0	1.4380000000000002
12.643	3.454	S_C	1.0	n/a	n/a	1.0	0.362	Sem/Sem_run-02/ContS08.wav	1.0	1	1.112
16.113	4.33	S_H	1.0	n/a	n/a	1.0	1.107	Sem/Sem_run-02/stereo_1SH10A0.wav	1.0	1	0.857
20.45	3.872	S_L	1.0	n/a	n/a	1.0	1.516	Sem/Sem_run-02/stereo_2SL61A0.wav	1.0	1	1.266
24.336	3.885	S_L	1.0	n/a	n/a	1.0	1.608	Sem/Sem_run-02/stereo_1SL23A0.wav	1.0	1	1.358
28.222	4.2	S_U	2.0	n/a	n/a	2.0	1.31	Sem/Sem_run-02/stereo_1SU42A0.wav	2.0	1	1.06
32.425	3.321	S_L	1.0	n/a	n/a	1.0	2.04	Sem/Sem_run-02/stereo_1SL16A0.wav	1.0	1	1.79
35.761	3.59	S_C	1.0	n/a	n/a	1.0	0.07400000000000001	Sem/Sem_run-02/ContS26.wav	1.0	1	0.8240000000000001
39.364	4.4	S_H	1.0	n/a	n/a	1.0	1.4240000000000002	Sem/Sem_run-02/stereo_2SH60A0.wav	1.0	1	1.1740000000000002
43.768	4.311	S_L	1.0	n/a	n/a	2.0	1.903	Sem/Sem_run-02/stereo_2SL75A0.wav	2.0	0	1.653
48.088	3.912	S_H	1.0	n/a	n/a	1.0	1.621	Sem/Sem_run-02/stereo_2SH59A0.wav	1.0	1	1.371
52.007	4.4	S_U	2.0	n/a	n/a	2.0	1.459	Sem/Sem_run-02/stereo_2SU84A0.wav	2.0	1	1.209
56.411	3.4210000000000003	S_U	2.0	n/a	n/a	2.0	1.531	Sem/Sem_run-02/stereo_1SU43A0.wav	2.0	1	1.281
59.847	3.8539999999999996	S_C	1.0	n/a	n/a	1.0	0.146	Sem/Sem_run-02/ContS02.wav	1.0	1	0.8959999999999999
63.716	4.37	S_L	1.0	n/a	n/a	1.0	1.465	Sem/Sem_run-02/stereo_1SL19A0.wav	1.0	1	1.215
68.086	3.862	S_L	1.0	n/a	n/a	1.0	2.356	Sem/Sem_run-02/stereo_1SL18A0.wav	1.0	1	2.106
71.956	4.462	S_C	1.0	n/a	n/a	1.0	0.058	Sem/Sem_run-02/ContS22.wav	1.0	1	0.8079999999999999
76.426	3.406	S_L	1.0	n/a	n/a	1.0	1.4469999999999998	Sem/Sem_run-02/stereo_1SL21A0.wav	1.0	1	1.1969999999999998
79.846	3.355	S_U	2.0	n/a	n/a	2.0	1.4	Sem/Sem_run-02/stereo_1SU36A0.wav	2.0	1	1.15
83.215	4.324	S_C	1.0	n/a	n/a	1.0	0.32	Sem/Sem_run-02/ContS04.wav	1.0	1	1.07
87.552	4.253	S_L	1.0	n/a	n/a	2.0	1.856	Sem/Sem_run-02/stereo_1SL24A0.wav	2.0	0	1.606
91.805	3.839	S_L	1.0	n/a	n/a	1.0	1.519	Sem/Sem_run-02/stereo_2SL70A0.wav	1.0	1	1.269
95.658	4.395	S_C	1.0	n/a	n/a	1.0	0.18600000000000005	Sem/Sem_run-02/ContS14.wav	1.0	1	0.936
100.061	3.8739999999999997	S_H	1.0	n/a	n/a	1.0	1.229	Sem/Sem_run-02/stereo_1SH09A0.wav	1.0	1	0.9790000000000001
103.948	3.75	S_U	2.0	n/a	n/a	2.0	1.62	Sem/Sem_run-02/stereo_1SU32A0.wav	2.0	1	1.37
107.701	3.641	S_C	1.0	n/a	n/a	1.0	0.077	Sem/Sem_run-02/ContS34.wav	1.0	1	0.8270000000000001
111.353	3.338	S_U	2.0	n/a	n/a	2.0	1.699	Sem/Sem_run-02/stereo_1SU31A0.wav	2.0	1	1.449
114.706	3.45	S_L	1.0	n/a	n/a	1.0	1.394	Sem/Sem_run-02/stereo_2SL68A0.wav	1.0	1	1.144
118.159	3.8510000000000004	S_H	1.0	n/a	n/a	1.0	2.039	Sem/Sem_run-02/stereo_1SH14A0.wav	1.0	1	1.7890000000000001
122.012	3.459	S_H	1.0	n/a	n/a	1.0	1.355	Sem/Sem_run-02/stereo_1SH01A0.wav	1.0	1	1.105
125.481	3.512	S_C	1.0	n/a	n/a	1.0	0.344	Sem/Sem_run-02/ContS16.wav	1.0	1	1.094
129.0	3.489	S_H	1.0	n/a	n/a	1.0	1.817	Sem/Sem_run-02/stereo_1SH12A0.wav	1.0	1	1.567
132.503	3.8489999999999998	S_U	2.0	n/a	n/a	2.0	1.401	Sem/Sem_run-02/stereo_2SU86A0.wav	2.0	1	1.151
136.356	3.46	S_L	1.0	n/a	n/a	1.0	1.802	Sem/Sem_run-02/stereo_1SL28A0.wav	1.0	1	1.5519999999999998
139.826	4.53	S_C	1.0	n/a	n/a	1.0	0.198	Sem/Sem_run-02/ContS32.wav	1.0	1	0.948
144.362	4.351	S_H	1.0	n/a	n/a	1.0	1.524	Sem/Sem_run-02/stereo_2SH52A0.wav	1.0	1	1.274
148.716	3.48	S_H	1.0	n/a	n/a	1.0	1.713	Sem/Sem_run-02/stereo_2SH47A0.wav	1.0	1	1.463
152.202	3.3	S_H	1.0	n/a	n/a	2.0	1.231	Sem/Sem_run-02/stereo_2SH53A0.wav	2.0	0	0.981
155.504	3.847	S_U	2.0	n/a	n/a	2.0	1.591	Sem/Sem_run-02/stereo_1SU39A0.wav	2.0	1	1.341
159.357	3.923	S_C	1.0	n/a	n/a	1.0	1.036	Sem/Sem_run-02/ContS10.wav	1.0	1	1.786
163.29399999999995	3.7510000000000003	S_U	2.0	n/a	n/a	2.0	1.818	Sem/Sem_run-02/stereo_2SU80A0.wav	2.0	1	1.568
167.047	4.2	S_L	1.0	n/a	n/a	1.0	1.935	Sem/Sem_run-02/stereo_2SL66A0.wav	1.0	1	1.685
171.25	3.99	S_C	1.0	n/a	n/a	1.0	0.275	Sem/Sem_run-02/ContS20.wav	1.0	1	1.025
175.253	4.041	S_C	1.0	n/a	n/a	1.0	0.626	Sem/Sem_run-02/ContS28.wav	1.0	1	1.376
179.30599999999995	4.2	S_U	2.0	n/a	n/a	2.0	2.241	Sem/Sem_run-02/stereo_2SU89A0.wav	2.0	1	1.991
183.509	4.368	S_H	1.0	n/a	n/a	2.0	1.277	Sem/Sem_run-02/stereo_2SH46A0.wav	2.0	0	1.027
