onset	duration	trial_type	correct	window1_response	window1_RT	window2_response	window2_RT	stim_file	calculated_response	calculated_accuracy	calculated_RT
1.084	4.2010000000000005	S_U	2.0	n/a	n/a	n/a	n/a	Sem/Sem_run-02/stereo_1SU33A0.wav	n/a	0	n/a
5.287000000000001	3.486	S_U	2.0	n/a	n/a	2.0	1.709	Sem/Sem_run-02/stereo_2SU85A0.wav	2.0	1	1.459
8.773	3.8539999999999996	S_H	1.0	n/a	n/a	1.0	1.401	Sem/Sem_run-02/stereo_2SH50A0.wav	1.0	1	1.151
12.643	3.454	S_C	1.0	n/a	n/a	1.0	1.2	Sem/Sem_run-02/ContS08.wav	1.0	1	1.95
16.112000000000002	4.33	S_H	1.0	n/a	n/a	1.0	1.081	Sem/Sem_run-02/stereo_1SH10A0.wav	1.0	1	0.831
20.449	3.872	S_L	1.0	n/a	n/a	1.0	2.065	Sem/Sem_run-02/stereo_2SL61A0.wav	1.0	1	1.815
24.335	3.885	S_L	1.0	n/a	n/a	2.0	1.536	Sem/Sem_run-02/stereo_1SL23A0.wav	2.0	0	1.286
28.221	4.2	S_U	2.0	n/a	n/a	2.0	1.9880000000000002	Sem/Sem_run-02/stereo_1SU42A0.wav	2.0	1	1.738
32.424	3.321	S_L	1.0	n/a	n/a	1.0	1.774	Sem/Sem_run-02/stereo_1SL16A0.wav	1.0	1	1.524
35.76	3.59	S_C	1.0	n/a	n/a	n/a	n/a	Sem/Sem_run-02/ContS26.wav	1.0	1	3.6719999999999997
39.363	4.4	S_H	1.0	1.0	0.08199999999999999	1.0	1.7469999999999999	Sem/Sem_run-02/stereo_2SH60A0.wav	1.0	1	1.497
43.76600000000001	4.311	S_L	1.0	n/a	n/a	1.0	1.9140000000000001	Sem/Sem_run-02/stereo_2SL75A0.wav	1.0	1	1.664
48.08600000000001	3.912	S_H	1.0	n/a	n/a	1.0	1.7069999999999999	Sem/Sem_run-02/stereo_2SH59A0.wav	1.0	1	1.457
52.006	4.4	S_U	2.0	n/a	n/a	2.0	2.028	Sem/Sem_run-02/stereo_2SU84A0.wav	2.0	1	1.778
56.409	3.4210000000000003	S_U	2.0	n/a	n/a	1.0	1.6280000000000001	Sem/Sem_run-02/stereo_1SU43A0.wav	1.0	0	1.378
59.845	3.8539999999999996	S_C	1.0	n/a	n/a	1.0	2.298	Sem/Sem_run-02/ContS02.wav	1.0	1	3.048
63.715	4.37	S_L	1.0	n/a	n/a	1.0	2.49	Sem/Sem_run-02/stereo_1SL19A0.wav	1.0	1	2.24
68.085	3.862	S_L	1.0	n/a	n/a	1.0	2.59	Sem/Sem_run-02/stereo_1SL18A0.wav	1.0	1	2.34
71.954	4.462	S_C	1.0	n/a	n/a	1.0	3.287	Sem/Sem_run-02/ContS22.wav	1.0	1	4.037
76.425	3.406	S_L	1.0	n/a	n/a	1.0	1.537	Sem/Sem_run-02/stereo_1SL21A0.wav	1.0	1	1.287
79.844	3.355	S_U	2.0	n/a	n/a	2.0	1.63	Sem/Sem_run-02/stereo_1SU36A0.wav	2.0	1	1.38
83.213	4.324	S_C	1.0	n/a	n/a	1.0	0.812	Sem/Sem_run-02/ContS04.wav	1.0	1	1.562
87.55	4.253	S_L	1.0	n/a	n/a	1.0	1.3730000000000002	Sem/Sem_run-02/stereo_1SL24A0.wav	1.0	1	1.1230000000000002
91.803	3.839	S_L	1.0	n/a	n/a	1.0	1.4409999999999998	Sem/Sem_run-02/stereo_2SL70A0.wav	1.0	1	1.1909999999999998
95.656	4.395	S_C	1.0	n/a	n/a	1.0	1.175	Sem/Sem_run-02/ContS14.wav	1.0	1	1.925
100.059	3.8739999999999997	S_H	1.0	n/a	n/a	1.0	1.025	Sem/Sem_run-02/stereo_1SH09A0.wav	1.0	1	0.7749999999999999
103.946	3.75	S_U	2.0	n/a	n/a	2.0	2.475	Sem/Sem_run-02/stereo_1SU32A0.wav	2.0	1	2.225
107.698	3.641	S_C	1.0	n/a	n/a	1.0	1.9709999999999999	Sem/Sem_run-02/ContS34.wav	1.0	1	2.721
111.351	3.338	S_U	2.0	n/a	n/a	1.0	2.0380000000000003	Sem/Sem_run-02/stereo_1SU31A0.wav	1.0	0	1.7880000000000003
114.704	3.45	S_L	1.0	n/a	n/a	1.0	1.9809999999999999	Sem/Sem_run-02/stereo_2SL68A0.wav	1.0	1	1.731
118.156	3.8510000000000004	S_H	1.0	n/a	n/a	1.0	1.16	Sem/Sem_run-02/stereo_1SH14A0.wav	1.0	1	0.9099999999999999
122.009	3.459	S_H	1.0	n/a	n/a	1.0	1.807	Sem/Sem_run-02/stereo_1SH01A0.wav	1.0	1	1.557
125.479	3.512	S_C	1.0	n/a	n/a	1.0	0.893	Sem/Sem_run-02/ContS16.wav	1.0	1	1.643
128.998	3.489	S_H	1.0	n/a	n/a	n/a	n/a	Sem/Sem_run-02/stereo_1SH12A0.wav	n/a	0	n/a
132.501	3.8489999999999998	S_U	2.0	n/a	n/a	1.0	1.229	Sem/Sem_run-02/stereo_2SU86A0.wav	1.0	0	0.9790000000000001
136.35399999999998	3.46	S_L	1.0	n/a	n/a	1.0	1.3940000000000001	Sem/Sem_run-02/stereo_1SL28A0.wav	1.0	1	1.144
139.82299999999998	4.53	S_C	1.0	n/a	n/a	1.0	1.9480000000000002	Sem/Sem_run-02/ContS32.wav	1.0	1	2.698
144.36	4.351	S_H	1.0	n/a	n/a	1.0	1.5590000000000002	Sem/Sem_run-02/stereo_2SH52A0.wav	1.0	1	1.3090000000000002
148.713	3.48	S_H	1.0	n/a	n/a	2.0	2.13	Sem/Sem_run-02/stereo_2SH47A0.wav	2.0	0	1.88
152.19899999999996	3.3	S_H	1.0	n/a	n/a	1.0	2.04	Sem/Sem_run-02/stereo_2SH53A0.wav	1.0	1	1.79
155.501	3.847	S_U	2.0	n/a	n/a	1.0	1.349	Sem/Sem_run-02/stereo_1SU39A0.wav	1.0	0	1.099
159.35399999999996	3.923	S_C	1.0	n/a	n/a	1.0	1.018	Sem/Sem_run-02/ContS10.wav	1.0	1	1.768
163.291	3.7510000000000003	S_U	2.0	n/a	n/a	2.0	1.3840000000000001	Sem/Sem_run-02/stereo_2SU80A0.wav	2.0	1	1.134
167.044	4.2	S_L	1.0	n/a	n/a	1.0	1.618	Sem/Sem_run-02/stereo_2SL66A0.wav	1.0	1	1.368
171.247	3.99	S_C	1.0	n/a	n/a	1.0	1.574	Sem/Sem_run-02/ContS20.wav	1.0	1	2.324
175.25	4.041	S_C	1.0	n/a	n/a	1.0	1.4240000000000002	Sem/Sem_run-02/ContS28.wav	1.0	1	2.1740000000000004
179.303	4.2	S_U	2.0	n/a	n/a	2.0	2.505	Sem/Sem_run-02/stereo_2SU89A0.wav	2.0	1	2.255
183.506	4.368	S_H	1.0	n/a	n/a	2.0	2.8689999999999998	Sem/Sem_run-02/stereo_2SH46A0.wav	2.0	0	2.619
