onset	duration	trial_type	correct	window1_response	window1_RT	window2_response	window2_RT	stim_file	calculated_response	calculated_accuracy	calculated_RT
1.084	4.2010000000000005	S_U	2.0	1.0	0.55	2.0	1.399	Sem/Sem_run-02/stereo_1SU33A0.wav	2.0	1	1.149
5.287000000000001	3.486	S_U	2.0	n/a	n/a	1.0	1.536	Sem/Sem_run-02/stereo_2SU85A0.wav	1.0	0	1.286
8.773	3.8539999999999996	S_H	1.0	n/a	n/a	1.0	1.493	Sem/Sem_run-02/stereo_2SH50A0.wav	1.0	1	1.243
12.643	3.454	S_C	1.0	n/a	n/a	1.0	1.854	Sem/Sem_run-02/ContS08.wav	1.0	1	2.604
16.112000000000002	4.33	S_H	1.0	n/a	n/a	1.0	2.01	Sem/Sem_run-02/stereo_1SH10A0.wav	1.0	1	1.7599999999999998
20.449	3.872	S_L	1.0	n/a	n/a	1.0	2.136	Sem/Sem_run-02/stereo_2SL61A0.wav	1.0	1	1.8860000000000001
24.335	3.885	S_L	1.0	n/a	n/a	1.0	1.349	Sem/Sem_run-02/stereo_1SL23A0.wav	1.0	1	1.099
28.221	4.2	S_U	2.0	n/a	n/a	2.0	2.1519999999999997	Sem/Sem_run-02/stereo_1SU42A0.wav	2.0	1	1.9020000000000001
32.425	3.321	S_L	1.0	n/a	n/a	1.0	1.1909999999999998	Sem/Sem_run-02/stereo_1SL16A0.wav	1.0	1	0.9409999999999998
35.761	3.59	S_C	1.0	n/a	n/a	1.0	1.6540000000000001	Sem/Sem_run-02/ContS26.wav	1.0	1	2.404
39.363	4.4	S_H	1.0	n/a	n/a	1.0	1.5119999999999998	Sem/Sem_run-02/stereo_2SH60A0.wav	1.0	1	1.2619999999999998
43.767	4.311	S_L	1.0	n/a	n/a	2.0	1.318	Sem/Sem_run-02/stereo_2SL75A0.wav	2.0	0	1.068
48.087	3.912	S_H	1.0	n/a	n/a	n/a	n/a	Sem/Sem_run-02/stereo_2SH59A0.wav	n/a	0	n/a
52.006	4.4	S_U	2.0	n/a	n/a	2.0	2.302	Sem/Sem_run-02/stereo_2SU84A0.wav	2.0	1	2.052
56.41	3.4210000000000003	S_U	2.0	n/a	n/a	1.0	1.348	Sem/Sem_run-02/stereo_1SU43A0.wav	1.0	0	1.098
59.846	3.8539999999999996	S_C	1.0	n/a	n/a	1.0	0.9420000000000001	Sem/Sem_run-02/ContS02.wav	1.0	1	1.692
63.716	4.37	S_L	1.0	n/a	n/a	1.0	1.385	Sem/Sem_run-02/stereo_1SL19A0.wav	1.0	1	1.135
68.086	3.862	S_L	1.0	n/a	n/a	n/a	n/a	Sem/Sem_run-02/stereo_1SL18A0.wav	n/a	0	n/a
71.955	4.462	S_C	1.0	1.0	0.195	n/a	n/a	Sem/Sem_run-02/ContS22.wav	1.0	1	0.195
76.425	3.406	S_L	1.0	n/a	n/a	n/a	n/a	Sem/Sem_run-02/stereo_1SL21A0.wav	2.0	0	2.424
79.845	3.355	S_U	2.0	2.0	0.018000000000000002	1.0	0.847	Sem/Sem_run-02/stereo_1SU36A0.wav	1.0	0	0.597
83.214	4.324	S_C	1.0	n/a	n/a	2.0	2.108	Sem/Sem_run-02/ContS04.wav	2.0	0	2.858
87.551	4.253	S_L	1.0	n/a	n/a	1.0	2.164	Sem/Sem_run-02/stereo_1SL24A0.wav	1.0	1	1.9140000000000001
91.804	3.839	S_L	1.0	n/a	n/a	1.0	2.233	Sem/Sem_run-02/stereo_2SL70A0.wav	1.0	1	1.983
95.657	4.395	S_C	1.0	n/a	n/a	1.0	2.492	Sem/Sem_run-02/ContS14.wav	1.0	1	3.242
100.06	3.8739999999999997	S_H	1.0	n/a	n/a	n/a	n/a	Sem/Sem_run-02/stereo_1SH09A0.wav	1.0	1	2.901
103.947	3.75	S_U	2.0	1.0	0.027000000000000003	1.0	1.8630000000000002	Sem/Sem_run-02/stereo_1SU32A0.wav	1.0	0	1.613
107.7	3.641	S_C	1.0	n/a	n/a	1.0	1.673	Sem/Sem_run-02/ContS34.wav	1.0	1	2.423
111.352	3.338	S_U	2.0	n/a	n/a	2.0	1.218	Sem/Sem_run-02/stereo_1SU31A0.wav	2.0	1	0.968
114.705	3.45	S_L	1.0	n/a	n/a	n/a	n/a	Sem/Sem_run-02/stereo_2SL68A0.wav	n/a	0	n/a
118.158	3.8510000000000004	S_H	1.0	n/a	n/a	1.0	1.496	Sem/Sem_run-02/stereo_1SH14A0.wav	1.0	1	1.246
122.011	3.459	S_H	1.0	n/a	n/a	1.0	1.3130000000000002	Sem/Sem_run-02/stereo_1SH01A0.wav	1.0	1	1.0630000000000002
125.48	3.512	S_C	1.0	n/a	n/a	n/a	n/a	Sem/Sem_run-02/ContS16.wav	1.0	1	3.635
128.999	3.489	S_H	1.0	1.0	0.12300000000000001	1.0	0.272	Sem/Sem_run-02/stereo_1SH12A0.wav	1.0	1	0.02200000000000002
132.502	3.8489999999999998	S_U	2.0	n/a	n/a	n/a	n/a	Sem/Sem_run-02/stereo_2SU86A0.wav	2.0	1	2.8979999999999997
136.355	3.46	S_L	1.0	2.0	0.049	1.0	1.5319999999999998	Sem/Sem_run-02/stereo_1SL28A0.wav	1.0	1	1.2819999999999998
139.82399999999998	4.53	S_C	1.0	n/a	n/a	1.0	2.1719999999999997	Sem/Sem_run-02/ContS32.wav	1.0	1	2.922
144.361	4.351	S_H	1.0	n/a	n/a	1.0	1.834	Sem/Sem_run-02/stereo_2SH52A0.wav	1.0	1	1.584
148.715	3.48	S_H	1.0	n/a	n/a	n/a	n/a	Sem/Sem_run-02/stereo_2SH47A0.wav	n/a	0	n/a
152.201	3.3	S_H	1.0	n/a	n/a	1.0	1.327	Sem/Sem_run-02/stereo_2SH53A0.wav	1.0	1	1.077
155.503	3.847	S_U	2.0	n/a	n/a	n/a	n/a	Sem/Sem_run-02/stereo_1SU39A0.wav	n/a	0	n/a
159.356	3.923	S_C	1.0	n/a	n/a	1.0	1.78	Sem/Sem_run-02/ContS10.wav	1.0	1	2.5300000000000002
163.293	3.7510000000000003	S_U	2.0	n/a	n/a	n/a	n/a	Sem/Sem_run-02/stereo_2SU80A0.wav	n/a	0	n/a
167.045	4.2	S_L	1.0	n/a	n/a	2.0	1.557	Sem/Sem_run-02/stereo_2SL66A0.wav	2.0	0	1.307
171.24900000000005	3.99	S_C	1.0	n/a	n/a	n/a	n/a	Sem/Sem_run-02/ContS20.wav	n/a	0	n/a
175.252	4.041	S_C	1.0	n/a	n/a	1.0	1.7590000000000001	Sem/Sem_run-02/ContS28.wav	1.0	1	2.509
179.305	4.2	S_U	2.0	n/a	n/a	n/a	n/a	Sem/Sem_run-02/stereo_2SU89A0.wav	n/a	0	n/a
183.508	4.368	S_H	1.0	n/a	n/a	1.0	1.5659999999999998	Sem/Sem_run-02/stereo_2SH46A0.wav	1.0	1	1.3159999999999998
