onset	duration	trial_type	correct	window1_response	window1_RT	window2_response	window2_RT	stim_file	calculated_response	calculated_accuracy	calculated_RT
1.128	3.4539999999999997	P_R	1.0	n/a	n/a	1.0	1.695	Phon/Phon_run-01/stereo_PR01.wav	1.0	1	1.445
4.587	3.767	P_O	1.0	n/a	n/a	1.0	1.0959999999999999	Phon/Phon_run-01/PC018.wav	1.0	1	0.8460000000000001
8.356	3.391	P_O	1.0	n/a	n/a	1.0	1.4380000000000002	Phon/Phon_run-01/PC009.wav	1.0	1	1.1880000000000002
11.759	4.374	P_C	1.0	n/a	n/a	1.0	0.426	Phon/Phon_run-01/ContS11.wav	1.0	1	1.176
16.146	3.345	P_U	2.0	n/a	n/a	2.0	1.198	Phon/Phon_run-01/PM002.wav	2.0	1	0.948
19.498	4.4510000000000005	P_C	1.0	n/a	n/a	1.0	0.114	Phon/Phon_run-01/ContS21.wav	1.0	1	0.864
23.951999999999998	4.382	P_O	1.0	n/a	n/a	1.0	1.665	Phon/Phon_run-01/PC005.wav	1.0	1	1.415
28.338	3.3	P_U	2.0	n/a	n/a	n/a	n/a	Phon/Phon_run-01/stereo_PU26.wav	n/a	0	n/a
31.641	4.324	P_C	1.0	2.0	0.11599999999999999	1.0	0.473	Phon/Phon_run-01/ContS03.wav	2.0	0	0.116
35.978	4.378	P_R	1.0	n/a	n/a	1.0	1.285	Phon/Phon_run-01/stereo_PR29.wav	1.0	1	1.035
40.364000000000004	3.4810000000000003	P_U	2.0	n/a	n/a	2.0	1.6569999999999998	Phon/Phon_run-01/PM020.wav	2.0	1	1.4069999999999998
43.851000000000006	4.393	P_O	1.0	n/a	n/a	1.0	1.157	Phon/Phon_run-01/PC027.wav	1.0	1	0.907
48.254	4.4	P_R	1.0	n/a	n/a	1.0	1.179	Phon/Phon_run-01/stereo_PR11.wav	1.0	1	0.929
52.657	3.884	P_C	1.0	n/a	n/a	1.0	0.563	Phon/Phon_run-01/ContS05.wav	1.0	1	1.313
56.544	3.891	P_U	2.0	n/a	n/a	2.0	1.329	Phon/Phon_run-01/stereo_PU28.wav	2.0	1	1.079
60.446999999999996	4.4	P_O	1.0	n/a	n/a	1.0	1.83	Phon/Phon_run-01/PC013.wav	1.0	1	1.58
64.85	3.513	P_C	1.0	n/a	n/a	1.0	0.157	Phon/Phon_run-01/ContS17.wav	1.0	1	0.907
68.37	4.4	P_U	2.0	n/a	n/a	2.0	1.3719999999999999	Phon/Phon_run-01/PM027.wav	2.0	1	1.122
72.773	4.4	P_O	1.0	n/a	n/a	1.0	1.229	Phon/Phon_run-01/PC021.wav	1.0	1	0.9790000000000001
77.17699999999998	4.496	P_C	1.0	n/a	n/a	1.0	0.765	Phon/Phon_run-01/ContS29.wav	1.0	1	1.5150000000000001
81.68	3.3680000000000003	P_R	1.0	n/a	n/a	1.0	1.19	Phon/Phon_run-01/stereo_PR25.wav	1.0	1	0.94
85.04899999999998	3.95	P_O	1.0	n/a	n/a	1.0	1.413	Phon/Phon_run-01/PC012.wav	1.0	1	1.163
89.00200000000002	3.95	P_U	2.0	n/a	n/a	2.0	1.3159999999999998	Phon/Phon_run-01/PM003.wav	2.0	1	1.0659999999999998
92.955	3.939	P_O	1.0	n/a	n/a	1.0	1.176	Phon/Phon_run-01/PC004.wav	1.0	1	0.9259999999999999
96.90899999999999	3.59	P_C	1.0	n/a	n/a	1.0	0.111	Phon/Phon_run-01/ContS27.wav	1.0	1	0.861
100.51100000000001	4.296	P_U	2.0	n/a	n/a	2.0	1.22	Phon/Phon_run-01/stereo_PU21.wav	2.0	1	0.97
104.815	3.862	P_R	1.0	n/a	n/a	1.0	1.401	Phon/Phon_run-01/stereo_PR26.wav	1.0	1	1.151
108.684	3.95	P_O	1.0	n/a	n/a	2.0	1.758	Phon/Phon_run-01/PC026.wav	2.0	0	1.508
112.637	3.5	P_O	1.0	n/a	n/a	n/a	n/a	Phon/Phon_run-01/PC025.wav	n/a	0	n/a
116.14	4.013	P_C	1.0	n/a	n/a	1.0	0.711	Phon/Phon_run-01/ContS23.wav	1.0	1	1.4609999999999999
120.16	3.792	P_R	1.0	n/a	n/a	1.0	1.673	Phon/Phon_run-01/stereo_PR18.wav	1.0	1	1.423
123.963	3.346	P_U	2.0	n/a	n/a	2.0	2.113	Phon/Phon_run-01/stereo_PU19.wav	2.0	1	1.863
127.316	3.891	P_R	1.0	n/a	n/a	1.0	1.033	Phon/Phon_run-01/stereo_PR03.wav	1.0	1	0.7829999999999999
131.219	3.355	P_O	1.0	n/a	n/a	1.0	1.2770000000000001	Phon/Phon_run-01/PC003.wav	1.0	1	1.027
134.588	3.951	P_C	1.0	n/a	n/a	n/a	n/a	Phon/Phon_run-01/ContS15.wav	n/a	0	n/a
138.541	3.74	P_U	2.0	n/a	n/a	2.0	2.099	Phon/Phon_run-01/stereo_PU16.wav	2.0	1	1.8490000000000002
142.29399999999995	3.95	P_R	1.0	n/a	n/a	1.0	2.323	Phon/Phon_run-01/stereo_PR10.wav	1.0	1	2.073
146.247	3.464	P_C	1.0	n/a	n/a	1.0	1.025	Phon/Phon_run-01/ContS09.wav	1.0	1	1.775
149.716	4.275	P_R	1.0	n/a	n/a	1.0	1.635	Phon/Phon_run-01/stereo_PR04.wav	1.0	1	1.385
154.003	3.95	P_U	2.0	n/a	n/a	2.0	1.5390000000000001	Phon/Phon_run-01/PM023.wav	2.0	1	1.289
157.95600000000005	4.4	P_U	2.0	n/a	n/a	2.0	1.2570000000000001	Phon/Phon_run-01/PM001.wav	2.0	1	1.007
162.36	3.665	P_C	1.0	n/a	n/a	1.0	0.748	Phon/Phon_run-01/ContS35.wav	1.0	1	1.498
166.02900000000002	3.463	P_O	1.0	n/a	n/a	1.0	1.376	Phon/Phon_run-01/PC017.wav	1.0	1	1.126
169.498	4.332	P_R	1.0	n/a	n/a	1.0	1.1520000000000001	Phon/Phon_run-01/stereo_PR19.wav	1.0	1	0.9019999999999999
173.835	4.083	P_C	1.0	n/a	n/a	1.0	1.63	Phon/Phon_run-01/ContS33.wav	1.0	1	2.38
177.922	3.5	P_R	1.0	n/a	n/a	1.0	1.4609999999999999	Phon/Phon_run-01/stereo_PR17.wav	1.0	1	1.211
181.424	4.2669999999999995	P_U	2.0	n/a	n/a	2.0	1.351	Phon/Phon_run-01/PM009.wav	2.0	1	1.101
185.69400000000002	3.4389999999999996	P_R	1.0	n/a	n/a	1.0	1.651	Phon/Phon_run-01/stereo_PR09.wav	1.0	1	1.401
