onset	duration	trial_type	correct	window1_response	window1_RT	window2_response	window2_RT	stim_file	calculated_response	calculated_accuracy	calculated_RT
1.101	3.4539999999999997	P_R	1.0	n/a	n/a	1.0	1.3719999999999999	Phon/Phon_run-01/stereo_PR01.wav	1.0	1	1.122
4.57	3.767	P_O	1.0	n/a	n/a	1.0	1.054	Phon/Phon_run-01/PC018.wav	1.0	1	0.804
8.339	3.391	P_O	1.0	n/a	n/a	1.0	1.173	Phon/Phon_run-01/PC009.wav	1.0	1	0.923
11.742	4.374	P_C	1.0	n/a	n/a	1.0	1.245	Phon/Phon_run-01/ContS11.wav	1.0	1	1.995
16.129	3.345	P_U	2.0	n/a	n/a	2.0	1.215	Phon/Phon_run-01/PM002.wav	2.0	1	0.9650000000000001
19.480999999999998	4.4510000000000005	P_C	1.0	n/a	n/a	1.0	1.392	Phon/Phon_run-01/ContS21.wav	1.0	1	2.142
23.935	4.382	P_O	1.0	n/a	n/a	1.0	1.285	Phon/Phon_run-01/PC005.wav	1.0	1	1.035
28.320999999999998	3.3	P_U	2.0	n/a	n/a	n/a	n/a	Phon/Phon_run-01/stereo_PU26.wav	n/a	0	n/a
31.624000000000002	4.324	P_C	1.0	n/a	n/a	1.0	1.207	Phon/Phon_run-01/ContS03.wav	1.0	1	1.957
35.96	4.378	P_R	1.0	n/a	n/a	1.0	1.232	Phon/Phon_run-01/stereo_PR29.wav	1.0	1	0.982
40.347	3.4810000000000003	P_U	2.0	n/a	n/a	2.0	1.597	Phon/Phon_run-01/PM020.wav	2.0	1	1.347
43.833	4.393	P_O	1.0	n/a	n/a	1.0	1.097	Phon/Phon_run-01/PC027.wav	1.0	1	0.847
48.236000000000004	4.4	P_R	1.0	n/a	n/a	1.0	1.659	Phon/Phon_run-01/stereo_PR11.wav	1.0	1	1.409
52.64	3.884	P_C	1.0	n/a	n/a	1.0	0.777	Phon/Phon_run-01/ContS05.wav	1.0	1	1.5270000000000001
56.526	3.891	P_U	2.0	n/a	n/a	1.0	2.314	Phon/Phon_run-01/stereo_PU28.wav	1.0	0	2.064
60.42899999999999	4.4	P_O	1.0	n/a	n/a	1.0	1.0270000000000001	Phon/Phon_run-01/PC013.wav	1.0	1	0.7769999999999999
64.832	3.513	P_C	1.0	n/a	n/a	1.0	0.625	Phon/Phon_run-01/ContS17.wav	1.0	1	1.375
68.352	4.4	P_U	2.0	n/a	n/a	2.0	1.8090000000000002	Phon/Phon_run-01/PM027.wav	2.0	1	1.559
72.755	4.4	P_O	1.0	n/a	n/a	1.0	2.339	Phon/Phon_run-01/PC021.wav	1.0	1	2.089
77.158	4.496	P_C	1.0	n/a	n/a	1.0	0.9490000000000001	Phon/Phon_run-01/ContS29.wav	1.0	1	1.6989999999999998
81.66199999999998	3.3680000000000003	P_R	1.0	n/a	n/a	1.0	1.337	Phon/Phon_run-01/stereo_PR25.wav	1.0	1	1.087
85.031	3.95	P_O	1.0	n/a	n/a	1.0	1.374	Phon/Phon_run-01/PC012.wav	1.0	1	1.124
88.984	3.95	P_U	2.0	n/a	n/a	2.0	1.944	Phon/Phon_run-01/PM003.wav	2.0	1	1.694
92.93700000000001	3.939	P_O	1.0	n/a	n/a	1.0	1.339	Phon/Phon_run-01/PC004.wav	1.0	1	1.089
96.89	3.59	P_C	1.0	n/a	n/a	1.0	0.892	Phon/Phon_run-01/ContS27.wav	1.0	1	1.642
100.493	4.296	P_U	2.0	n/a	n/a	2.0	1.176	Phon/Phon_run-01/stereo_PU21.wav	2.0	1	0.9259999999999999
104.796	3.862	P_R	1.0	n/a	n/a	1.0	1.247	Phon/Phon_run-01/stereo_PR26.wav	1.0	1	0.9970000000000001
108.666	3.95	P_O	1.0	n/a	n/a	1.0	1.4769999999999999	Phon/Phon_run-01/PC026.wav	1.0	1	1.227
112.619	3.5	P_O	1.0	n/a	n/a	2.0	1.469	Phon/Phon_run-01/PC025.wav	2.0	0	1.219
116.12100000000001	4.013	P_C	1.0	n/a	n/a	1.0	0.743	Phon/Phon_run-01/ContS23.wav	1.0	1	1.4929999999999999
120.141	3.792	P_R	1.0	n/a	n/a	1.0	1.054	Phon/Phon_run-01/stereo_PR18.wav	1.0	1	0.804
123.944	3.346	P_U	2.0	n/a	n/a	2.0	1.919	Phon/Phon_run-01/stereo_PU19.wav	2.0	1	1.669
127.296	3.891	P_R	1.0	n/a	n/a	1.0	1.078	Phon/Phon_run-01/stereo_PR03.wav	1.0	1	0.8280000000000001
131.19899999999998	3.355	P_O	1.0	n/a	n/a	1.0	1.643	Phon/Phon_run-01/PC003.wav	1.0	1	1.393
134.569	3.951	P_C	1.0	n/a	n/a	1.0	1.131	Phon/Phon_run-01/ContS15.wav	1.0	1	1.881
138.52200000000002	3.74	P_U	2.0	n/a	n/a	2.0	1.4980000000000002	Phon/Phon_run-01/stereo_PU16.wav	2.0	1	1.2480000000000002
142.274	3.95	P_R	1.0	n/a	n/a	1.0	1.262	Phon/Phon_run-01/stereo_PR10.wav	1.0	1	1.012
146.227	3.464	P_C	1.0	n/a	n/a	1.0	1.329	Phon/Phon_run-01/ContS09.wav	1.0	1	2.0789999999999997
149.697	4.275	P_R	1.0	n/a	n/a	1.0	2.238	Phon/Phon_run-01/stereo_PR04.wav	1.0	1	1.988
153.983	3.95	P_U	2.0	n/a	n/a	n/a	n/a	Phon/Phon_run-01/PM023.wav	n/a	0	n/a
157.936	4.4	P_U	2.0	n/a	n/a	1.0	1.123	Phon/Phon_run-01/PM001.wav	1.0	0	0.873
162.34	3.665	P_C	1.0	n/a	n/a	1.0	0.9159999999999999	Phon/Phon_run-01/ContS35.wav	1.0	1	1.666
166.00900000000001	3.463	P_O	1.0	n/a	n/a	1.0	1.604	Phon/Phon_run-01/PC017.wav	1.0	1	1.354
169.47799999999995	4.332	P_R	1.0	n/a	n/a	1.0	1.17	Phon/Phon_run-01/stereo_PR19.wav	1.0	1	0.9199999999999999
173.815	4.083	P_C	1.0	n/a	n/a	1.0	1.014	Phon/Phon_run-01/ContS33.wav	1.0	1	1.764
177.90099999999995	3.5	P_R	1.0	n/a	n/a	1.0	1.715	Phon/Phon_run-01/stereo_PR17.wav	1.0	1	1.465
181.40400000000002	4.2669999999999995	P_U	2.0	n/a	n/a	2.0	1.11	Phon/Phon_run-01/PM009.wav	2.0	1	0.8600000000000001
185.674	3.4389999999999996	P_R	1.0	n/a	n/a	1.0	1.8119999999999998	Phon/Phon_run-01/stereo_PR09.wav	1.0	1	1.562
