onset	duration	trial_type	correct	window1_response	window1_RT	window2_response	window2_RT	stim_file	calculated_response	calculated_accuracy	calculated_RT
1.101	3.4539999999999997	P_R	1.0	n/a	n/a	1.0	1.6	Phon/Phon_run-01/stereo_PR01.wav	1.0	1	1.35
4.57	3.767	P_O	1.0	n/a	n/a	1.0	1.17	Phon/Phon_run-01/PC018.wav	1.0	1	0.9199999999999999
8.339	3.391	P_O	1.0	n/a	n/a	1.0	1.419	Phon/Phon_run-01/PC009.wav	1.0	1	1.169
11.742	4.374	P_C	1.0	n/a	n/a	1.0	0.069	Phon/Phon_run-01/ContS11.wav	1.0	1	0.819
16.129	3.345	P_U	2.0	n/a	n/a	2.0	1.3780000000000001	Phon/Phon_run-01/PM002.wav	2.0	1	1.128
19.480999999999998	4.4510000000000005	P_C	1.0	n/a	n/a	1.0	0.17800000000000002	Phon/Phon_run-01/ContS21.wav	1.0	1	0.928
23.935	4.382	P_O	1.0	n/a	n/a	1.0	1.409	Phon/Phon_run-01/PC005.wav	1.0	1	1.159
28.320999999999998	3.3	P_U	2.0	n/a	n/a	2.0	1.8319999999999999	Phon/Phon_run-01/stereo_PU26.wav	2.0	1	1.582
31.624000000000002	4.324	P_C	1.0	n/a	n/a	1.0	0.39	Phon/Phon_run-01/ContS03.wav	1.0	1	1.1400000000000001
35.961	4.378	P_R	1.0	n/a	n/a	1.0	1.577	Phon/Phon_run-01/stereo_PR29.wav	1.0	1	1.327
40.347	3.4810000000000003	P_U	2.0	n/a	n/a	2.0	1.834	Phon/Phon_run-01/PM020.wav	2.0	1	1.584
43.833	4.393	P_O	1.0	n/a	n/a	1.0	1.4969999999999999	Phon/Phon_run-01/PC027.wav	1.0	1	1.247
48.23699999999999	4.4	P_R	1.0	n/a	n/a	1.0	1.425	Phon/Phon_run-01/stereo_PR11.wav	1.0	1	1.175
52.64	3.884	P_C	1.0	n/a	n/a	1.0	0.085	Phon/Phon_run-01/ContS05.wav	1.0	1	0.835
56.526	3.891	P_U	2.0	n/a	n/a	2.0	1.358	Phon/Phon_run-01/stereo_PU28.wav	2.0	1	1.108
60.42899999999999	4.4	P_O	1.0	n/a	n/a	1.0	1.21	Phon/Phon_run-01/PC013.wav	1.0	1	0.96
64.833	3.513	P_C	1.0	n/a	n/a	1.0	0.028999999999999998	Phon/Phon_run-01/ContS17.wav	1.0	1	0.779
68.352	4.4	P_U	2.0	n/a	n/a	2.0	1.385	Phon/Phon_run-01/PM027.wav	2.0	1	1.135
72.756	4.4	P_O	1.0	n/a	n/a	2.0	1.5230000000000001	Phon/Phon_run-01/PC021.wav	2.0	0	1.273
77.15899999999998	4.496	P_C	1.0	1.0	0.68	n/a	n/a	Phon/Phon_run-01/ContS29.wav	1.0	1	0.68
81.66199999999998	3.3680000000000003	P_R	1.0	n/a	n/a	1.0	1.4269999999999998	Phon/Phon_run-01/stereo_PR25.wav	1.0	1	1.1769999999999998
85.03200000000002	3.95	P_O	1.0	n/a	n/a	1.0	1.474	Phon/Phon_run-01/PC012.wav	1.0	1	1.224
88.985	3.95	P_U	2.0	n/a	n/a	2.0	1.474	Phon/Phon_run-01/PM003.wav	2.0	1	1.224
92.93799999999999	3.939	P_O	1.0	n/a	n/a	1.0	1.222	Phon/Phon_run-01/PC004.wav	1.0	1	0.972
96.891	3.59	P_C	1.0	n/a	n/a	2.0	0.643	Phon/Phon_run-01/ContS27.wav	2.0	0	1.393
100.494	4.296	P_U	2.0	n/a	n/a	2.0	1.7409999999999999	Phon/Phon_run-01/stereo_PU21.wav	2.0	1	1.491
104.79700000000001	3.862	P_R	1.0	n/a	n/a	1.0	1.284	Phon/Phon_run-01/stereo_PR26.wav	1.0	1	1.034
108.666	3.95	P_O	1.0	n/a	n/a	1.0	1.281	Phon/Phon_run-01/PC026.wav	1.0	1	1.031
112.62	3.5	P_O	1.0	n/a	n/a	2.0	1.7409999999999999	Phon/Phon_run-01/PC025.wav	2.0	0	1.491
116.12200000000001	4.013	P_C	1.0	n/a	n/a	1.0	0.442	Phon/Phon_run-01/ContS23.wav	1.0	1	1.192
120.14200000000001	3.792	P_R	1.0	n/a	n/a	1.0	1.172	Phon/Phon_run-01/stereo_PR18.wav	1.0	1	0.9219999999999999
123.945	3.346	P_U	2.0	n/a	n/a	1.0	1.5119999999999998	Phon/Phon_run-01/stereo_PU19.wav	1.0	0	1.2619999999999998
127.29700000000001	3.891	P_R	1.0	n/a	n/a	1.0	1.396	Phon/Phon_run-01/stereo_PR03.wav	1.0	1	1.146
131.2	3.355	P_O	1.0	n/a	n/a	1.0	1.859	Phon/Phon_run-01/PC003.wav	1.0	1	1.609
134.57	3.951	P_C	1.0	n/a	n/a	1.0	0.43700000000000006	Phon/Phon_run-01/ContS15.wav	1.0	1	1.187
138.523	3.74	P_U	2.0	n/a	n/a	2.0	1.228	Phon/Phon_run-01/stereo_PU16.wav	2.0	1	0.978
142.276	3.95	P_R	1.0	n/a	n/a	1.0	1.825	Phon/Phon_run-01/stereo_PR10.wav	1.0	1	1.575
146.22899999999996	3.464	P_C	1.0	n/a	n/a	1.0	0.935	Phon/Phon_run-01/ContS09.wav	1.0	1	1.685
149.69799999999995	4.275	P_R	1.0	n/a	n/a	1.0	1.618	Phon/Phon_run-01/stereo_PR04.wav	1.0	1	1.368
153.985	3.95	P_U	2.0	n/a	n/a	2.0	1.4169999999999998	Phon/Phon_run-01/PM023.wav	2.0	1	1.1669999999999998
157.938	4.4	P_U	2.0	n/a	n/a	2.0	1.9240000000000002	Phon/Phon_run-01/PM001.wav	2.0	1	1.674
162.341	3.665	P_C	1.0	n/a	n/a	1.0	0.59	Phon/Phon_run-01/ContS35.wav	1.0	1	1.3399999999999999
166.01	3.463	P_O	1.0	n/a	n/a	1.0	1.351	Phon/Phon_run-01/PC017.wav	1.0	1	1.101
169.48	4.332	P_R	1.0	n/a	n/a	1.0	1.165	Phon/Phon_run-01/stereo_PR19.wav	1.0	1	0.915
173.81599999999997	4.083	P_C	1.0	1.0	0.711	n/a	n/a	Phon/Phon_run-01/ContS33.wav	1.0	1	0.711
177.903	3.5	P_R	1.0	n/a	n/a	1.0	1.271	Phon/Phon_run-01/stereo_PR17.wav	1.0	1	1.021
181.40599999999998	4.2669999999999995	P_U	2.0	n/a	n/a	2.0	1.364	Phon/Phon_run-01/PM009.wav	2.0	1	1.114
185.676	3.4389999999999996	P_R	1.0	n/a	n/a	1.0	1.442	Phon/Phon_run-01/stereo_PR09.wav	1.0	1	1.192
