onset	duration	trial_type	correct	window1_response	window1_RT	window2_response	window2_RT	stim_file	calculated_response	calculated_accuracy	calculated_RT
1.0964	7.034	SP_W	1.0	n/a	n/a	1.0	3.76	Plaus/Plaus_run-01/stereo_PW85.wav	1.0	1	1.6129999999999995
8.1359	5.641	SP_I	2.0	n/a	n/a	1.0	2.67	Plaus/Plaus_run-01/stereo_PI11.wav	1.0	0	1.7499999999999998
13.79	6.77	SP_C	1.0	n/a	n/a	1.0	0.971	Plaus/Plaus_run-01/CoM08b.wav	1.0	1	1.721
20.5628	7.327000000000001	SP_W	1.0	n/a	n/a	1.0	3.8489999999999998	Plaus/Plaus_run-01/stereo_PW72.wav	1.0	1	1.8690000000000002
27.9014	6.145	SP_C	1.0	n/a	n/a	1.0	0.259	Plaus/Plaus_run-01/CoM05d.wav	1.0	1	1.009
34.0559	5.181	SP_I	2.0	n/a	n/a	2.0	2.694	Plaus/Plaus_run-01/stereo_PI65.wav	2.0	1	1.7519999999999998
39.243	5.092	SP_S	1.0	n/a	n/a	1.0	2.347	Plaus/Plaus_run-01/stereo_PC13.wav	1.0	1	1.2839999999999998
44.3468	7.355	SP_C	1.0	n/a	n/a	1.0	0.139	Plaus/Plaus_run-01/CoM06l.wav	1.0	1	0.889
51.7032	7.47	SP_I	2.0	n/a	n/a	2.0	3.708	Plaus/Plaus_run-01/stereo_PI90.wav	2.0	1	1.5370000000000004
59.1764	7.399	SP_S	1.0	n/a	n/a	1.0	3.832	Plaus/Plaus_run-01/stereo_PC35.wav	1.0	1	1.565
66.5818	5.685	SP_S	1.0	n/a	n/a	1.0	3.437	Plaus/Plaus_run-01/stereo_PC47.wav	1.0	1	2.428
72.2704	5.669	SP_W	1.0	n/a	n/a	1.0	2.199	Plaus/Plaus_run-01/stereo_PW19.wav	1.0	1	1.1929999999999998
77.9423	7.9	SP_C	1.0	1.0	0.706	1.0	0.955	Plaus/Plaus_run-01/CoM03l.wav	1.0	1	0.706
85.8483	5.145	SP_I	2.0	n/a	n/a	2.0	2.9130000000000003	Plaus/Plaus_run-01/stereo_PI09.wav	2.0	1	1.9050000000000005
91.0021	6.9170000000000025	SP_W	1.0	n/a	n/a	1.0	4.296	Plaus/Plaus_run-01/stereo_PW30.wav	1.0	1	2.176
97.9243	5.738	SP_S	1.0	n/a	n/a	1.0	2.7289999999999996	Plaus/Plaus_run-01/stereo_PC14.wav	1.0	1	1.558
103.6662	6.276	SP_W	1.0	n/a	n/a	1.0	2.281	Plaus/Plaus_run-01/stereo_PW50.wav	1.0	1	1.459
109.954	5.49	SP_C	1.0	n/a	n/a	1.0	0.5920000000000001	Plaus/Plaus_run-01/CoM03d.wav	1.0	1	1.342
115.458	5.7	SP_I	2.0	n/a	n/a	2.0	2.594	Plaus/Plaus_run-01/stereo_PI67.wav	2.0	1	1.7029999999999998
121.1625	7.237	SP_S	1.0	n/a	n/a	1.0	3.114	Plaus/Plaus_run-01/stereo_PC68.wav	1.0	1	1.1479999999999997
128.4022	6.49	SP_C	1.0	n/a	n/a	1.0	0.012	Plaus/Plaus_run-01/CoM03b.wav	1.0	1	0.762
134.9065	6.25	SP_W	1.0	n/a	n/a	1.0	3.408	Plaus/Plaus_run-01/stereo_PW61.wav	1.0	1	2.428
141.161	6.952999999999999	SP_I	2.0	n/a	n/a	2.0	3.8810000000000002	Plaus/Plaus_run-01/stereo_PI32.wav	2.0	1	1.7159999999999997
148.1173	7.085	SP_C	1.0	n/a	n/a	1.0	0.207	Plaus/Plaus_run-01/CoM02e.wav	1.0	1	0.957
155.2068	6.3610000000000015	SP_S	1.0	n/a	n/a	1.0	3.72	Plaus/Plaus_run-01/stereo_PC24.wav	1.0	1	1.4620000000000002
161.5781	5.1110000000000015	SP_W	1.0	n/a	n/a	1.0	2.3209999999999997	Plaus/Plaus_run-01/stereo_PW53.wav	1.0	1	1.3070000000000004
166.6985	6.2860000000000005	SP_I	2.0	n/a	n/a	1.0	3.8339999999999996	Plaus/Plaus_run-01/stereo_PI42.wav	1.0	0	1.6380000000000003
172.9876	6.577000000000001	SP_S	1.0	n/a	n/a	n/a	n/a	Plaus/Plaus_run-01/stereo_PC57.wav	n/a	0	n/a
179.5757	5.273	SP_W	1.0	n/a	n/a	1.0	2.883	Plaus/Plaus_run-01/stereo_PW18.wav	1.0	1	1.716
184.8629	5.77	SP_C	1.0	1.0	0.6629999999999999	1.0	1.021	Plaus/Plaus_run-01/CoM09b.wav	1.0	1	0.6629999999999999
190.6348	6.731	SP_S	1.0	n/a	n/a	1.0	3.286	Plaus/Plaus_run-01/stereo_PC26.wav	1.0	1	1.186
197.3731	7.212999999999999	SP_I	2.0	n/a	n/a	2.0	3.695	Plaus/Plaus_run-01/stereo_PI33.wav	2.0	1	1.7119999999999997
204.595	5.181	SP_S	1.0	n/a	n/a	1.0	3.133	Plaus/Plaus_run-01/stereo_PC01.wav	1.0	1	2.192
209.7821	6.238	SP_S	1.0	n/a	n/a	1.0	3.8339999999999996	Plaus/Plaus_run-01/stereo_PC36.wav	1.0	1	1.7879999999999998
216.0211	7.73	SP_C	1.0	n/a	n/a	2.0	0.762	Plaus/Plaus_run-01/CoM10e.wav	2.0	0	1.512
223.7601	6.843	SP_I	2.0	n/a	n/a	2.0	4.441	Plaus/Plaus_run-01/stereo_PI45.wav	2.0	1	2.314
230.615	6.101	SP_W	1.0	n/a	n/a	1.0	3.681	Plaus/Plaus_run-01/stereo_PW28.wav	1.0	1	1.7489999999999997
236.7206	7.419	SP_W	1.0	n/a	n/a	1.0	3.639	Plaus/Plaus_run-01/stereo_PW86.wav	1.0	1	1.6030000000000002
244.1438	6.54	SP_C	1.0	1.0	0.608	1.0	0.7170000000000001	Plaus/Plaus_run-01/CoM05e.wav	1.0	1	0.608
250.6981	6.247000000000001	SP_I	2.0	n/a	n/a	2.0	2.986	Plaus/Plaus_run-01/stereo_PI12.wav	2.0	1	2.115
