onset	duration	trial_type	correct	window1_response	window1_RT	window2_response	window2_RT	stim_file	calculated_response	calculated_accuracy	calculated_RT
1.0964	7.034	SP_W	1.0	n/a	n/a	1.0	4.226	Plaus/Plaus_run-01/stereo_PW85.wav	1.0	1	2.0789999999999997
8.1359	5.641	SP_I	2.0	n/a	n/a	2.0	2.556	Plaus/Plaus_run-01/stereo_PI11.wav	2.0	1	1.636
13.79	6.77	SP_C	1.0	n/a	n/a	1.0	0.247	Plaus/Plaus_run-01/CoM08b.wav	1.0	1	0.997
20.5628	7.327000000000001	SP_W	1.0	n/a	n/a	1.0	4.354	Plaus/Plaus_run-01/stereo_PW72.wav	1.0	1	2.374
27.9014	6.145	SP_C	1.0	n/a	n/a	1.0	1.631	Plaus/Plaus_run-01/CoM05d.wav	1.0	1	2.3810000000000002
34.0559	5.181	SP_I	2.0	n/a	n/a	2.0	2.611	Plaus/Plaus_run-01/stereo_PI65.wav	2.0	1	1.669
39.243	5.092	SP_S	1.0	n/a	n/a	1.0	3.1060000000000003	Plaus/Plaus_run-01/stereo_PC13.wav	1.0	1	2.043
44.3468	7.355	SP_C	1.0	n/a	n/a	1.0	0.99	Plaus/Plaus_run-01/CoM06l.wav	1.0	1	1.74
51.7032	7.47	SP_I	2.0	n/a	n/a	2.0	4.712	Plaus/Plaus_run-01/stereo_PI90.wav	2.0	1	2.541
59.1764	7.399	SP_S	1.0	n/a	n/a	1.0	3.219	Plaus/Plaus_run-01/stereo_PC35.wav	1.0	1	0.952
66.5818	5.685	SP_S	1.0	n/a	n/a	1.0	2.55	Plaus/Plaus_run-01/stereo_PC47.wav	1.0	1	1.5409999999999997
72.2704	5.669	SP_W	1.0	n/a	n/a	2.0	2.738	Plaus/Plaus_run-01/stereo_PW19.wav	2.0	0	1.732
77.9423	7.9	SP_C	1.0	n/a	n/a	1.0	0.496	Plaus/Plaus_run-01/CoM03l.wav	1.0	1	1.246
85.8483	5.145	SP_I	2.0	n/a	n/a	n/a	n/a	Plaus/Plaus_run-01/stereo_PI09.wav	n/a	0	n/a
91.0021	6.9170000000000025	SP_W	1.0	n/a	n/a	1.0	4.737	Plaus/Plaus_run-01/stereo_PW30.wav	1.0	1	2.617
97.9243	5.738	SP_S	1.0	n/a	n/a	1.0	3.12	Plaus/Plaus_run-01/stereo_PC14.wav	1.0	1	1.949
103.6662	6.276	SP_W	1.0	n/a	n/a	1.0	2.542	Plaus/Plaus_run-01/stereo_PW50.wav	1.0	1	1.7199999999999998
109.954	5.49	SP_C	1.0	n/a	n/a	1.0	0.826	Plaus/Plaus_run-01/CoM03d.wav	1.0	1	1.576
115.458	5.7	SP_I	2.0	n/a	n/a	2.0	2.5380000000000003	Plaus/Plaus_run-01/stereo_PI67.wav	2.0	1	1.6470000000000002
121.1625	7.237	SP_S	1.0	n/a	n/a	1.0	3.6639999999999997	Plaus/Plaus_run-01/stereo_PC68.wav	1.0	1	1.698
128.4022	6.49	SP_C	1.0	n/a	n/a	1.0	1.148	Plaus/Plaus_run-01/CoM03b.wav	1.0	1	1.898
134.9065	6.25	SP_W	1.0	n/a	n/a	2.0	2.4	Plaus/Plaus_run-01/stereo_PW61.wav	2.0	0	1.42
141.161	6.952999999999999	SP_I	2.0	n/a	n/a	2.0	3.736	Plaus/Plaus_run-01/stereo_PI32.wav	2.0	1	1.5710000000000002
148.1173	7.085	SP_C	1.0	n/a	n/a	1.0	0.779	Plaus/Plaus_run-01/CoM02e.wav	1.0	1	1.529
155.2068	6.3610000000000015	SP_S	1.0	n/a	n/a	1.0	3.967	Plaus/Plaus_run-01/stereo_PC24.wav	1.0	1	1.709
161.5781	5.1110000000000015	SP_W	1.0	n/a	n/a	1.0	2.592	Plaus/Plaus_run-01/stereo_PW53.wav	1.0	1	1.5780000000000003
166.6985	6.2860000000000005	SP_I	2.0	n/a	n/a	2.0	3.585	Plaus/Plaus_run-01/stereo_PI42.wav	2.0	1	1.3890000000000002
172.9876	6.577000000000001	SP_S	1.0	n/a	n/a	1.0	3.427	Plaus/Plaus_run-01/stereo_PC57.wav	1.0	1	2.232
179.5757	5.273	SP_W	1.0	n/a	n/a	1.0	3.1060000000000003	Plaus/Plaus_run-01/stereo_PW18.wav	1.0	1	1.9390000000000003
184.8629	5.77	SP_C	1.0	n/a	n/a	1.0	0.499	Plaus/Plaus_run-01/CoM09b.wav	1.0	1	1.249
190.6348	6.731	SP_S	1.0	n/a	n/a	1.0	4.012	Plaus/Plaus_run-01/stereo_PC26.wav	1.0	1	1.9119999999999995
197.3731	7.212999999999999	SP_I	2.0	n/a	n/a	2.0	3.858	Plaus/Plaus_run-01/stereo_PI33.wav	2.0	1	1.875
204.595	5.181	SP_S	1.0	n/a	n/a	1.0	3.1260000000000003	Plaus/Plaus_run-01/stereo_PC01.wav	1.0	1	2.1850000000000005
209.7821	6.238	SP_S	1.0	n/a	n/a	1.0	3.949	Plaus/Plaus_run-01/stereo_PC36.wav	1.0	1	1.9029999999999996
216.0211	7.73	SP_C	1.0	n/a	n/a	1.0	0.775	Plaus/Plaus_run-01/CoM10e.wav	1.0	1	1.525
223.7601	6.843	SP_I	2.0	n/a	n/a	2.0	3.948	Plaus/Plaus_run-01/stereo_PI45.wav	2.0	1	1.8210000000000002
230.615	6.101	SP_W	1.0	n/a	n/a	1.0	3.655	Plaus/Plaus_run-01/stereo_PW28.wav	1.0	1	1.7229999999999994
236.7206	7.419	SP_W	1.0	n/a	n/a	2.0	3.8789999999999996	Plaus/Plaus_run-01/stereo_PW86.wav	2.0	0	1.8430000000000004
244.1438	6.54	SP_C	1.0	1.0	0.705	1.0	0.975	Plaus/Plaus_run-01/CoM05e.wav	1.0	1	0.705
250.6981	6.247000000000001	SP_I	2.0	n/a	n/a	2.0	2.8689999999999998	Plaus/Plaus_run-01/stereo_PI12.wav	2.0	1	1.9980000000000002
