onset	duration	trial_type	correct	window1_response	window1_RT	window2_response	window2_RT	stim_file	calculated_response	calculated_accuracy	calculated_RT
1.084	3.4539999999999997	P_R	1.0	n/a	n/a	1.0	1.466	Phon/Phon_run-01/stereo_PR01.wav	1.0	1	1.216
4.553	3.767	P_O	1.0	n/a	n/a	1.0	1.2830000000000001	Phon/Phon_run-01/PC018.wav	1.0	1	1.033
8.323	3.391	P_O	1.0	n/a	n/a	1.0	1.044	Phon/Phon_run-01/PC009.wav	1.0	1	0.794
11.725	4.374	P_C	1.0	1.0	0.693	1.0	0.7040000000000001	Phon/Phon_run-01/ContS11.wav	1.0	1	0.693
16.112000000000002	3.345	P_U	2.0	n/a	n/a	2.0	1.022	Phon/Phon_run-01/PM002.wav	2.0	1	0.772
19.464000000000002	4.4510000000000005	P_C	1.0	1.0	0.66	1.0	0.802	Phon/Phon_run-01/ContS21.wav	1.0	1	0.66
23.91800000000001	4.382	P_O	1.0	n/a	n/a	1.0	1.615	Phon/Phon_run-01/PC005.wav	1.0	1	1.365
28.305	3.3	P_U	2.0	n/a	n/a	2.0	1.6909999999999998	Phon/Phon_run-01/stereo_PU26.wav	2.0	1	1.4409999999999998
31.607	4.324	P_C	1.0	1.0	0.718	1.0	0.551	Phon/Phon_run-01/ContS03.wav	1.0	1	0.718
35.944	4.378	P_R	1.0	n/a	n/a	1.0	1.9080000000000001	Phon/Phon_run-01/stereo_PR29.wav	1.0	1	1.658
40.33	3.4810000000000003	P_U	2.0	n/a	n/a	2.0	1.389	Phon/Phon_run-01/PM020.wav	2.0	1	1.139
43.816	4.393	P_O	1.0	n/a	n/a	1.0	1.234	Phon/Phon_run-01/PC027.wav	1.0	1	0.984
48.22	4.4	P_R	1.0	n/a	n/a	1.0	1.837	Phon/Phon_run-01/stereo_PR11.wav	1.0	1	1.587
52.62300000000001	3.884	P_C	1.0	n/a	n/a	1.0	0.13699999999999998	Phon/Phon_run-01/ContS05.wav	1.0	1	0.887
56.51	3.891	P_U	2.0	n/a	n/a	2.0	1.521	Phon/Phon_run-01/stereo_PU28.wav	2.0	1	1.271
60.413000000000004	4.4	P_O	1.0	n/a	n/a	1.0	1.268	Phon/Phon_run-01/PC013.wav	1.0	1	1.018
64.816	3.513	P_C	1.0	n/a	n/a	1.0	0.162	Phon/Phon_run-01/ContS17.wav	1.0	1	0.912
68.335	4.4	P_U	2.0	n/a	n/a	2.0	1.4069999999999998	Phon/Phon_run-01/PM027.wav	2.0	1	1.1569999999999998
72.73899999999998	4.4	P_O	1.0	n/a	n/a	1.0	1.476	Phon/Phon_run-01/PC021.wav	1.0	1	1.226
77.142	4.496	P_C	1.0	1.0	0.7120000000000001	1.0	0.5429999999999999	Phon/Phon_run-01/ContS29.wav	1.0	1	0.7120000000000001
81.646	3.3680000000000003	P_R	1.0	n/a	n/a	n/a	n/a	Phon/Phon_run-01/stereo_PR25.wav	n/a	0	n/a
85.015	3.95	P_O	1.0	n/a	n/a	1.0	0.963	Phon/Phon_run-01/PC012.wav	1.0	1	0.713
88.96799999999998	3.95	P_U	2.0	n/a	n/a	2.0	1.436	Phon/Phon_run-01/PM003.wav	2.0	1	1.186
92.921	3.939	P_O	1.0	n/a	n/a	1.0	1.5319999999999998	Phon/Phon_run-01/PC004.wav	1.0	1	1.2819999999999998
96.874	3.59	P_C	1.0	n/a	n/a	1.0	0.01	Phon/Phon_run-01/ContS27.wav	1.0	1	0.76
100.477	4.296	P_U	2.0	n/a	n/a	2.0	1.625	Phon/Phon_run-01/stereo_PU21.wav	2.0	1	1.375
104.78	3.862	P_R	1.0	n/a	n/a	1.0	1.207	Phon/Phon_run-01/stereo_PR26.wav	1.0	1	0.9570000000000001
108.65	3.95	P_O	1.0	n/a	n/a	1.0	1.103	Phon/Phon_run-01/PC026.wav	1.0	1	0.853
112.603	3.5	P_O	1.0	n/a	n/a	1.0	2.226	Phon/Phon_run-01/PC025.wav	1.0	1	1.976
116.105	4.013	P_C	1.0	1.0	0.57	1.0	0.603	Phon/Phon_run-01/ContS23.wav	1.0	1	0.57
120.125	3.792	P_R	1.0	n/a	n/a	1.0	1.18	Phon/Phon_run-01/stereo_PR18.wav	1.0	1	0.9299999999999999
123.928	3.346	P_U	2.0	n/a	n/a	2.0	1.229	Phon/Phon_run-01/stereo_PU19.wav	2.0	1	0.9790000000000001
127.281	3.891	P_R	1.0	n/a	n/a	1.0	1.58	Phon/Phon_run-01/stereo_PR03.wav	1.0	1	1.33
131.184	3.355	P_O	1.0	n/a	n/a	1.0	1.545	Phon/Phon_run-01/PC003.wav	1.0	1	1.295
134.553	3.951	P_C	1.0	1.0	0.595	1.0	0.65	Phon/Phon_run-01/ContS15.wav	1.0	1	0.595
138.506	3.74	P_U	2.0	n/a	n/a	2.0	1.083	Phon/Phon_run-01/stereo_PU16.wav	2.0	1	0.833
142.259	3.95	P_R	1.0	n/a	n/a	1.0	1.594	Phon/Phon_run-01/stereo_PR10.wav	1.0	1	1.344
146.21200000000005	3.464	P_C	1.0	1.0	0.601	1.0	0.7140000000000001	Phon/Phon_run-01/ContS09.wav	1.0	1	0.601
149.681	4.275	P_R	1.0	n/a	n/a	1.0	1.66	Phon/Phon_run-01/stereo_PR04.wav	1.0	1	1.41
153.968	3.95	P_U	2.0	n/a	n/a	2.0	2.181	Phon/Phon_run-01/PM023.wav	2.0	1	1.931
157.921	4.4	P_U	2.0	n/a	n/a	2.0	2.315	Phon/Phon_run-01/PM001.wav	2.0	1	2.065
162.32399999999996	3.665	P_C	1.0	n/a	n/a	1.0	0.256	Phon/Phon_run-01/ContS35.wav	1.0	1	1.006
165.99400000000003	3.463	P_O	1.0	n/a	n/a	1.0	1.1	Phon/Phon_run-01/PC017.wav	1.0	1	0.8500000000000001
169.463	4.332	P_R	1.0	n/a	n/a	1.0	1.815	Phon/Phon_run-01/stereo_PR19.wav	1.0	1	1.565
173.8	4.083	P_C	1.0	1.0	0.564	1.0	0.76	Phon/Phon_run-01/ContS33.wav	1.0	1	0.564
177.886	3.5	P_R	1.0	n/a	n/a	1.0	1.225	Phon/Phon_run-01/stereo_PR17.wav	1.0	1	0.9750000000000001
181.389	4.2669999999999995	P_U	2.0	n/a	n/a	2.0	1.314	Phon/Phon_run-01/PM009.wav	2.0	1	1.064
185.65900000000002	3.4389999999999996	P_R	1.0	n/a	n/a	1.0	1.26	Phon/Phon_run-01/stereo_PR09.wav	1.0	1	1.01
