onset	duration	trial_type	correct	window1_response	window1_RT	window2_response	window2_RT	stim_file	calculated_response	calculated_accuracy	calculated_RT
1.084	4.2	S_U	2.0	n/a	n/a	2.0	1.7380000000000002	Sem/Sem_run-01/stereo_1SU41A0.wav	2.0	1	1.4880000000000002
5.287000000000001	3.596	S_C	1.0	n/a	n/a	1.0	1.125	Sem/Sem_run-01/ContS29.wav	1.0	1	1.875
8.89	3.425	S_U	2.0	n/a	n/a	2.0	1.5130000000000001	Sem/Sem_run-01/stereo_2SU87A0.wav	2.0	1	1.263
12.325999999999999	3.933	S_H	1.0	n/a	n/a	1.0	1.3840000000000001	Sem/Sem_run-01/stereo_1SH13A0.wav	1.0	1	1.134
16.262	4.323	S_H	1.0	n/a	n/a	1.0	1.435	Sem/Sem_run-01/stereo_1SH05A0.wav	1.0	1	1.185
20.599	4.073	S_C	1.0	n/a	n/a	1.0	1.15	Sem/Sem_run-01/ContS31.wav	1.0	1	1.9
24.685	3.869	S_L	1.0	n/a	n/a	1.0	2.58	Sem/Sem_run-01/stereo_2SL63A0.wav	1.0	1	2.33
28.555	3.75	S_L	1.0	n/a	n/a	1.0	1.136	Sem/Sem_run-01/stereo_1SL29A0.wav	1.0	1	0.8859999999999999
32.308	4.3660000000000005	S_U	2.0	n/a	n/a	2.0	1.5330000000000001	Sem/Sem_run-01/stereo_2SU78A0.wav	2.0	1	1.283
36.678000000000004	3.3	S_L	1.0	n/a	n/a	n/a	n/a	Sem/Sem_run-01/stereo_1SL17A0.wav	n/a	0	n/a
39.98	3.884	S_C	1.0	n/a	n/a	1.0	1.227	Sem/Sem_run-01/ContS05.wav	1.0	1	1.977
43.867	4.371	S_H	1.0	n/a	n/a	1.0	1.479	Sem/Sem_run-01/stereo_2SH58A0.wav	1.0	1	1.229
48.253	4.329	S_L	1.0	n/a	n/a	1.0	1.758	Sem/Sem_run-01/stereo_2SL72A0.wav	1.0	1	1.508
52.59	3.94	S_H	1.0	n/a	n/a	1.0	1.784	Sem/Sem_run-01/stereo_2SH57A0.wav	1.0	1	1.534
56.543	4.2	S_U	2.0	n/a	n/a	2.0	1.758	Sem/Sem_run-01/stereo_2SU83A0.wav	2.0	1	1.508
60.746	3.474	S_C	1.0	n/a	n/a	1.0	0.7929999999999999	Sem/Sem_run-01/ContS11.wav	1.0	1	1.543
64.232	4.271	S_L	1.0	n/a	n/a	1.0	2.625	Sem/Sem_run-01/stereo_1SL26A0.wav	1.0	1	2.375
68.51899999999999	3.91	S_L	1.0	n/a	n/a	1.0	1.6980000000000002	Sem/Sem_run-01/stereo_1SL25A0.wav	1.0	1	1.4480000000000002
72.439	4.479	S_C	1.0	n/a	n/a	1.0	0.515	Sem/Sem_run-01/ContS25.wav	1.0	1	1.2650000000000001
76.926	3.378	S_U	2.0	n/a	n/a	2.0	2.198	Sem/Sem_run-01/stereo_2SU81A0.wav	2.0	1	1.948
80.311	3.42	S_L	1.0	n/a	n/a	1.0	1.4409999999999998	Sem/Sem_run-01/stereo_1SL27A0.wav	1.0	1	1.1909999999999998
83.73100000000002	4.3439999999999985	S_L	1.0	n/a	n/a	1.0	1.601	Sem/Sem_run-01/stereo_1SL30A0.wav	1.0	1	1.351
88.084	3.909	S_L	1.0	n/a	n/a	1.0	1.4669999999999999	Sem/Sem_run-01/stereo_2SL71A0.wav	1.0	1	1.217
92.00399999999999	3.867	S_H	1.0	n/a	n/a	1.0	1.3159999999999998	Sem/Sem_run-01/stereo_1SH04A0.wav	1.0	1	1.0659999999999998
95.87299999999999	3.828	S_U	2.0	n/a	n/a	2.0	1.318	Sem/Sem_run-01/stereo_1SU37A0.wav	2.0	1	1.068
99.71	4.565	S_C	1.0	n/a	n/a	1.0	0.426	Sem/Sem_run-01/ContS35.wav	1.0	1	1.176
104.28	3.3	S_U	2.0	n/a	n/a	2.0	1.587	Sem/Sem_run-01/stereo_1SU35A0.wav	2.0	1	1.337
107.58200000000001	3.477	S_L	1.0	n/a	n/a	1.0	2.093	Sem/Sem_run-01/stereo_2SL65A0.wav	1.0	1	1.843
111.069	3.83	S_H	1.0	n/a	n/a	1.0	1.546	Sem/Sem_run-01/stereo_1SH07A0.wav	1.0	1	1.296
114.905	4.3439999999999985	S_C	1.0	n/a	n/a	1.0	0.6970000000000001	Sem/Sem_run-01/ContS07.wav	1.0	1	1.447
119.258	3.5	S_H	1.0	n/a	n/a	1.0	1.469	Sem/Sem_run-01/stereo_1SH03A0.wav	1.0	1	1.219
122.76100000000001	3.919	S_U	2.0	n/a	n/a	2.0	2.252	Sem/Sem_run-01/stereo_1SU45A0.wav	2.0	1	2.002
126.681	3.5	S_H	1.0	n/a	n/a	1.0	1.8259999999999998	Sem/Sem_run-01/stereo_1SH06A0.wav	1.0	1	1.576
130.183	3.392	S_L	1.0	n/a	n/a	1.0	1.58	Sem/Sem_run-01/stereo_2SL62A0.wav	1.0	1	1.33
133.586	3.54	S_C	1.0	n/a	n/a	1.0	0.813	Sem/Sem_run-01/ContS19.wav	1.0	1	1.563
137.139	4.4	S_H	1.0	n/a	n/a	1.0	1.631	Sem/Sem_run-01/stereo_1SH15A0.wav	1.0	1	1.381
141.542	3.342	S_H	1.0	n/a	n/a	2.0	1.814	Sem/Sem_run-01/stereo_1SH11A0.wav	2.0	0	1.564
144.895	3.385	S_U	2.0	n/a	n/a	1.0	1.595	Sem/Sem_run-01/stereo_1SU44A0.wav	1.0	0	1.345
148.28	3.4160000000000004	S_H	1.0	n/a	n/a	1.0	1.3159999999999998	Sem/Sem_run-01/stereo_2SH56A0.wav	1.0	1	1.0659999999999998
151.7	3.849	S_U	2.0	n/a	n/a	2.0	1.817	Sem/Sem_run-01/stereo_2SU82A0.wav	2.0	1	1.567
155.553	3.934	S_C	1.0	n/a	n/a	1.0	0.794	Sem/Sem_run-01/ContS13.wav	1.0	1	1.544
159.489	4.309	S_L	1.0	n/a	n/a	1.0	1.874	Sem/Sem_run-01/stereo_2SL64A0.wav	1.0	1	1.624
163.809	4.413	S_C	1.0	n/a	n/a	1.0	0.917	Sem/Sem_run-01/ContS17.wav	1.0	1	1.667
168.229	4.2	S_U	2.0	n/a	n/a	2.0	1.9769999999999999	Sem/Sem_run-01/stereo_2SU90A0.wav	2.0	1	1.727
172.43200000000004	3.846	S_U	2.0	n/a	n/a	2.0	1.473	Sem/Sem_run-01/stereo_2SU88A0.wav	2.0	1	1.223
176.285	3.3939999999999997	S_C	1.0	n/a	n/a	1.0	1.024	Sem/Sem_run-01/ContS01.wav	1.0	1	1.774
179.688	4.013	S_C	1.0	n/a	n/a	1.0	0.667	Sem/Sem_run-01/ContS23.wav	1.0	1	1.417
183.708	4.227	S_H	1.0	n/a	n/a	1.0	1.285	Sem/Sem_run-01/stereo_1SH08A0.wav	1.0	1	1.035
