onset	duration	trial_type	correct	window1_response	window1_RT	window2_response	window2_RT	stim_file	calculated_response	calculated_accuracy	calculated_RT
1.085	7.034	SP_W	1.0	n/a	n/a	1.0	3.625	Plaus/Plaus_run-01/stereo_PW85.wav	1.0	1	1.4779999999999998
8.123	5.641	SP_I	2.0	n/a	n/a	2.0	2.776	Plaus/Plaus_run-01/stereo_PI11.wav	2.0	1	1.8559999999999999
13.778	6.77	SP_C	1.0	n/a	n/a	1.0	1.053	Plaus/Plaus_run-01/CoM08b.wav	1.0	1	1.8030000000000002
20.55	7.327000000000001	SP_W	1.0	n/a	n/a	1.0	3.644	Plaus/Plaus_run-01/stereo_PW72.wav	1.0	1	1.6639999999999997
27.888	6.145	SP_C	1.0	n/a	n/a	1.0	1.3259999999999998	Plaus/Plaus_run-01/CoM05d.wav	1.0	1	2.076
34.043	5.181	SP_I	2.0	n/a	n/a	2.0	2.802	Plaus/Plaus_run-01/stereo_PI65.wav	2.0	1	1.86
39.231	5.092	SP_S	1.0	n/a	n/a	1.0	2.65	Plaus/Plaus_run-01/stereo_PC13.wav	1.0	1	1.5869999999999995
44.335	7.355	SP_C	1.0	n/a	n/a	1.0	1.352	Plaus/Plaus_run-01/CoM06l.wav	1.0	1	2.102
51.69	7.47	SP_I	2.0	n/a	n/a	2.0	4.569	Plaus/Plaus_run-01/stereo_PI90.wav	2.0	1	2.398
59.163	7.399	SP_S	1.0	n/a	n/a	1.0	3.4560000000000004	Plaus/Plaus_run-01/stereo_PC35.wav	1.0	1	1.1890000000000005
66.568	5.685	SP_S	1.0	n/a	n/a	1.0	2.696	Plaus/Plaus_run-01/stereo_PC47.wav	1.0	1	1.6869999999999998
72.256	5.669	SP_W	1.0	n/a	n/a	1.0	2.521	Plaus/Plaus_run-01/stereo_PW19.wav	1.0	1	1.515
77.92699999999998	7.9	SP_C	1.0	n/a	n/a	1.0	1.846	Plaus/Plaus_run-01/CoM03l.wav	1.0	1	2.596
85.833	5.145	SP_I	2.0	n/a	n/a	2.0	3.403	Plaus/Plaus_run-01/stereo_PI09.wav	2.0	1	2.3950000000000005
90.987	6.9170000000000025	SP_W	1.0	n/a	n/a	1.0	3.645	Plaus/Plaus_run-01/stereo_PW30.wav	1.0	1	1.525
97.909	5.738	SP_S	1.0	n/a	n/a	1.0	2.613	Plaus/Plaus_run-01/stereo_PC14.wav	1.0	1	1.442
103.647	6.276	SP_W	1.0	n/a	n/a	1.0	2.919	Plaus/Plaus_run-01/stereo_PW50.wav	1.0	1	2.0969999999999995
109.935	5.49	SP_C	1.0	n/a	n/a	1.0	1.7080000000000002	Plaus/Plaus_run-01/CoM03d.wav	1.0	1	2.458
115.439	5.7	SP_I	2.0	n/a	n/a	2.0	2.399	Plaus/Plaus_run-01/stereo_PI67.wav	2.0	1	1.508
121.144	7.237	SP_S	1.0	n/a	n/a	1.0	3.145	Plaus/Plaus_run-01/stereo_PC68.wav	1.0	1	1.1789999999999998
128.38299999999998	6.49	SP_C	1.0	n/a	n/a	1.0	2.001	Plaus/Plaus_run-01/CoM03b.wav	1.0	1	2.7510000000000003
134.888	6.25	SP_W	1.0	n/a	n/a	1.0	2.7430000000000003	Plaus/Plaus_run-01/stereo_PW61.wav	1.0	1	1.7630000000000003
141.142	6.952999999999999	SP_I	2.0	n/a	n/a	2.0	3.796	Plaus/Plaus_run-01/stereo_PI32.wav	2.0	1	1.6310000000000002
148.09799999999996	7.085	SP_C	1.0	n/a	n/a	1.0	1.388	Plaus/Plaus_run-01/CoM02e.wav	1.0	1	2.138
155.187	6.3610000000000015	SP_S	1.0	n/a	n/a	1.0	4.006	Plaus/Plaus_run-01/stereo_PC24.wav	1.0	1	1.7480000000000002
161.558	5.1110000000000015	SP_W	1.0	n/a	n/a	2.0	3.137	Plaus/Plaus_run-01/stereo_PW53.wav	2.0	0	2.123
166.679	6.2860000000000005	SP_I	2.0	n/a	n/a	2.0	4.1	Plaus/Plaus_run-01/stereo_PI42.wav	2.0	1	1.9040000000000001
172.967	6.577000000000001	SP_S	1.0	n/a	n/a	1.0	2.515	Plaus/Plaus_run-01/stereo_PC57.wav	1.0	1	1.32
179.555	5.273	SP_W	1.0	n/a	n/a	2.0	2.972	Plaus/Plaus_run-01/stereo_PW18.wav	2.0	0	1.805
184.843	5.77	SP_C	1.0	n/a	n/a	1.0	1.554	Plaus/Plaus_run-01/CoM09b.wav	1.0	1	2.3040000000000003
190.614	6.731	SP_S	1.0	n/a	n/a	1.0	3.663	Plaus/Plaus_run-01/stereo_PC26.wav	1.0	1	1.5630000000000002
197.352	7.212999999999999	SP_I	2.0	n/a	n/a	2.0	3.804	Plaus/Plaus_run-01/stereo_PI33.wav	2.0	1	1.821
204.575	5.181	SP_S	1.0	n/a	n/a	1.0	2.546	Plaus/Plaus_run-01/stereo_PC01.wav	1.0	1	1.605
209.762	6.238	SP_S	1.0	n/a	n/a	1.0	3.972	Plaus/Plaus_run-01/stereo_PC36.wav	1.0	1	1.926
216.0	7.73	SP_C	1.0	n/a	n/a	1.0	0.004	Plaus/Plaus_run-01/CoM10e.wav	1.0	1	0.754
223.739	6.843	SP_I	2.0	n/a	n/a	2.0	4.191	Plaus/Plaus_run-01/stereo_PI45.wav	2.0	1	2.064
230.595	6.101	SP_W	1.0	n/a	n/a	2.0	3.818	Plaus/Plaus_run-01/stereo_PW28.wav	2.0	0	1.886
236.699	7.419	SP_W	1.0	n/a	n/a	1.0	3.661	Plaus/Plaus_run-01/stereo_PW86.wav	1.0	1	1.6250000000000004
244.122	6.54	SP_C	1.0	n/a	n/a	1.0	0.022	Plaus/Plaus_run-01/CoM05e.wav	1.0	1	0.772
250.677	6.247000000000001	SP_I	2.0	n/a	n/a	2.0	2.912	Plaus/Plaus_run-01/stereo_PI12.wav	2.0	1	2.041
