onset	duration	trial_type	correct	window1_response	window1_RT	window2_response	window2_RT	stim_file	calculated_response	calculated_accuracy	calculated_RT
1.0934	7.632999999999999	G_P	2.0	n/a	n/a	1.0	3.699	Gram/Gram_run-02/stereo_1MP45U4.wav	1.0	0	1.5679999999999996
8.7323	7.315	G_F	2.0	n/a	n/a	2.0	3.65	Gram/Gram_run-02/stereo_1MF20U4.wav	2.0	1	2.9399999999999995
16.0543	6.2829999999999995	G_P	2.0	n/a	n/a	1.0	2.952	Gram/Gram_run-02/stereo_1MP34U2.wav	1.0	0	1.8599999999999999
22.3421	6.195	G_C	1.0	n/a	n/a	1.0	0.019	Gram/Gram_run-02/CoM06d.wav	1.0	1	0.769
28.5465	6.221	G_G	1.0	n/a	n/a	1.0	4.39	Gram/Gram_run-02/stereo_1MF02G1.wav	1.0	1	2.3499999999999996
34.769	5.801	G_F	2.0	n/a	n/a	2.0	3.903	Gram/Gram_run-02/stereo_2MF64U3.wav	2.0	1	4.6530000000000005
40.5743	6.78	G_C	1.0	n/a	n/a	1.0	0.342	Gram/Gram_run-02/CoM07l.wav	1.0	1	1.092
47.3625	6.084	G_F	2.0	n/a	n/a	1.0	2.637	Gram/Gram_run-02/stereo_2MF56U2.wav	1.0	0	3.387
53.4512	7.5470000000000015	G_F	2.0	n/a	n/a	1.0	3.946	Gram/Gram_run-02/stereo_1MF21U4.wav	1.0	0	3.1950000000000003
61.0065	6.482	G_G	1.0	n/a	n/a	1.0	3.723	Gram/Gram_run-02/stereo_1MF24G4.wav	1.0	1	1.362
67.4946	6.7810000000000015	G_P	2.0	n/a	n/a	1.0	3.71	Gram/Gram_run-02/stereo_2MP76U1.wav	1.0	0	1.4480000000000004
74.2828	6.643	G_P	2.0	n/a	n/a	1.0	2.4659999999999997	Gram/Gram_run-02/stereo_2MP80U2.wav	1.0	0	1.5099999999999998
80.9376	7.69	G_C	1.0	n/a	n/a	1.0	0.08199999999999999	Gram/Gram_run-02/CoM06e.wav	1.0	1	0.832
88.639	6.352	G_F	2.0	n/a	n/a	1.0	2.49	Gram/Gram_run-02/stereo_2MF63U3.wav	1.0	0	3.24
94.9947	5.801	G_G	1.0	n/a	n/a	1.0	3.068	Gram/Gram_run-02/stereo_1MF18G3.wav	1.0	1	1.685
100.8001	7.1129999999999995	G_P	2.0	n/a	n/a	1.0	3.915	Gram/Gram_run-02/stereo_1MP44U4.wav	1.0	0	1.5579999999999998
107.9218	6.78	G_C	1.0	n/a	n/a	1.0	1.632	Gram/Gram_run-02/CoM05b.wav	1.0	1	2.3819999999999997
114.7101	6.7360000000000015	G_F	2.0	n/a	n/a	1.0	2.69	Gram/Gram_run-02/stereo_2MF58U2.wav	1.0	0	3.44
121.4494	6.0889999999999995	G_P	2.0	n/a	n/a	2.0	3.037	Gram/Gram_run-02/stereo_2MP87U3.wav	2.0	1	1.825
127.5529	7.6370000000000005	G_P	2.0	n/a	n/a	1.0	3.881	Gram/Gram_run-02/stereo_2MP73U1.wav	1.0	0	1.8539999999999996
135.1929	7.305	G_C	1.0	n/a	n/a	1.0	0.669	Gram/Gram_run-02/CoM02l.wav	1.0	1	1.419
142.4994	5.983	G_G	1.0	n/a	n/a	2.0	2.156	Gram/Gram_run-02/stereo_1MP42G3.wav	2.0	0	1.234
148.4871	5.36	G_P	2.0	n/a	n/a	1.0	2.353	Gram/Gram_run-02/stereo_1MP32U2.wav	1.0	0	1.347
153.8576	7.145	G_C	1.0	1.0	0.7020000000000001	1.0	1.088	Gram/Gram_run-02/CoM09e.wav	1.0	1	0.7020000000000001
161.0128	6.28	G_F	2.0	n/a	n/a	1.0	3.606	Gram/Gram_run-02/stereo_1MF19U4.wav	1.0	0	2.92
167.3005	6.63	G_C	1.0	n/a	n/a	1.0	0.3	Gram/Gram_run-02/CoM07b.wav	1.0	1	1.05
173.9386	7.195	G_G	1.0	n/a	n/a	1.0	2.39	Gram/Gram_run-02/stereo_2MP89G3.wav	1.0	1	1.052
181.1437	5.1739999999999995	G_F	2.0	n/a	n/a	2.0	1.589	Gram/Gram_run-02/stereo_1MF07U2.wav	2.0	1	2.339
186.3308	6.944	G_P	2.0	n/a	n/a	2.0	3.549	Gram/Gram_run-02/stereo_2MP88U3.wav	2.0	1	2.5060000000000002
193.2858	6.0889999999999995	G_G	1.0	n/a	n/a	2.0	2.736	Gram/Gram_run-02/stereo_2MF66G3.wav	2.0	0	1.3620000000000005
199.3896	6.5	G_C	1.0	n/a	n/a	1.0	0.042	Gram/Gram_run-02/CoM01e.wav	1.0	1	0.792
205.8946	6.43	G_P	2.0	n/a	n/a	1.0	3.515	Gram/Gram_run-02/stereo_1MP43U4.wav	1.0	0	1.233
212.3325	6.19	G_G	1.0	n/a	n/a	1.0	2.421	Gram/Gram_run-02/stereo_2MP84G2.wav	1.0	1	1.4889999999999999
218.537	7.114	G_G	1.0	n/a	n/a	1.0	3.6010000000000004	Gram/Gram_run-02/stereo_1MP29G1.wav	1.0	1	1.4130000000000003
225.6587	6.731	G_F	2.0	n/a	n/a	1.0	3.749	Gram/Gram_run-02/stereo_2MF53U1.wav	1.0	0	3.178
232.3969	6.015	G_C	1.0	n/a	n/a	1.0	0.076	Gram/Gram_run-02/CoM02d.wav	1.0	1	0.826
238.4179	7.17	G_G	1.0	n/a	n/a	1.0	3.5	Gram/Gram_run-02/stereo_2MF71G4.wav	1.0	1	1.2509999999999994
245.5909	5.33	G_C	1.0	1.0	0.7340000000000001	1.0	1.541	Gram/Gram_run-02/CoM06b.wav	1.0	1	0.7340000000000001
250.9316	6.9689999999999985	G_F	2.0	n/a	n/a	1.0	3.843	Gram/Gram_run-02/stereo_2MF54U1.wav	1.0	0	3.273
257.9045	7.6	G_G	1.0	n/a	n/a	1.0	3.464	Gram/Gram_run-02/stereo_2MF49G1.wav	1.0	1	1.275
