onset	duration	trial_type	correct	window1_response	window1_RT	window2_response	window2_RT	stim_file	calculated_response	calculated_accuracy	calculated_RT
1.0918	4.2	S_U	2.0	n/a	n/a	1.0	1.8869999999999998	Sem/Sem_run-01/stereo_1SU41A0.wav	1.0	0	1.637
5.2953	3.596	S_C	1.0	n/a	n/a	1.0	0.644	Sem/Sem_run-01/ContS29.wav	1.0	1	1.3940000000000001
8.898	3.425	S_U	2.0	n/a	n/a	1.0	1.475	Sem/Sem_run-01/stereo_2SU87A0.wav	1.0	0	1.225
12.3338	3.933	S_H	1.0	n/a	n/a	1.0	1.6030000000000002	Sem/Sem_run-01/stereo_1SH13A0.wav	1.0	1	1.3530000000000002
16.2699	4.323	S_H	1.0	n/a	n/a	1.0	1.405	Sem/Sem_run-01/stereo_1SH05A0.wav	1.0	1	1.155
20.6064	4.073	S_C	1.0	n/a	n/a	1.0	0.061	Sem/Sem_run-01/ContS31.wav	1.0	1	0.8109999999999999
24.6927	3.869	S_L	1.0	n/a	n/a	1.0	1.15	Sem/Sem_run-01/stereo_2SL63A0.wav	1.0	1	0.8999999999999999
28.5634	3.75	S_L	1.0	n/a	n/a	1.0	0.9279999999999999	Sem/Sem_run-01/stereo_1SL29A0.wav	1.0	1	0.678
32.3161	4.3660000000000005	S_U	2.0	n/a	n/a	2.0	1.7069999999999999	Sem/Sem_run-01/stereo_2SU78A0.wav	2.0	1	1.457
36.6859	3.3	S_L	1.0	n/a	n/a	1.0	1.829	Sem/Sem_run-01/stereo_1SL17A0.wav	1.0	1	1.579
39.9885	3.884	S_C	1.0	n/a	n/a	1.0	0.12	Sem/Sem_run-01/ContS05.wav	1.0	1	0.87
43.8755	4.371	S_H	1.0	n/a	n/a	1.0	1.17	Sem/Sem_run-01/stereo_2SH58A0.wav	1.0	1	0.9199999999999999
48.2606	4.329	S_L	1.0	n/a	n/a	1.0	1.3780000000000001	Sem/Sem_run-01/stereo_2SL72A0.wav	1.0	1	1.128
52.5971	3.94	S_H	1.0	n/a	n/a	1.0	1.4469999999999998	Sem/Sem_run-01/stereo_2SH57A0.wav	1.0	1	1.1969999999999998
56.55	4.2	S_U	2.0	n/a	n/a	1.0	1.544	Sem/Sem_run-01/stereo_2SU83A0.wav	1.0	0	1.294
60.753	3.474	S_C	1.0	n/a	n/a	1.0	0.483	Sem/Sem_run-01/ContS11.wav	1.0	1	1.233
64.2389	4.271	S_L	1.0	n/a	n/a	2.0	1.124	Sem/Sem_run-01/stereo_1SL26A0.wav	2.0	0	0.8740000000000001
68.5248	3.91	S_L	1.0	n/a	n/a	1.0	1.806	Sem/Sem_run-01/stereo_1SL25A0.wav	1.0	1	1.556
72.4443	4.479	S_C	1.0	n/a	n/a	1.0	0.428	Sem/Sem_run-01/ContS25.wav	1.0	1	1.178
76.9309	3.378	S_U	2.0	n/a	n/a	2.0	1.867	Sem/Sem_run-01/stereo_2SU81A0.wav	2.0	1	1.617
80.3167	3.42	S_L	1.0	n/a	n/a	1.0	1.3969999999999998	Sem/Sem_run-01/stereo_1SL27A0.wav	1.0	1	1.1469999999999998
83.7479	4.3439999999999985	S_L	1.0	n/a	n/a	1.0	1.236	Sem/Sem_run-01/stereo_1SL30A0.wav	1.0	1	0.986
88.1008	3.909	S_L	1.0	n/a	n/a	1.0	1.4140000000000001	Sem/Sem_run-01/stereo_2SL71A0.wav	1.0	1	1.164
92.0205	3.867	S_H	1.0	n/a	n/a	1.0	1.466	Sem/Sem_run-01/stereo_1SH04A0.wav	1.0	1	1.216
95.8902	3.828	S_U	2.0	n/a	n/a	2.0	1.4980000000000002	Sem/Sem_run-01/stereo_1SU37A0.wav	2.0	1	1.2480000000000002
99.7264	4.565	S_C	1.0	n/a	n/a	1.0	0.040999999999999995	Sem/Sem_run-01/ContS35.wav	1.0	1	0.791
104.2964	3.3	S_U	2.0	n/a	n/a	1.0	1.808	Sem/Sem_run-01/stereo_1SU35A0.wav	1.0	0	1.558
107.5986	3.477	S_L	1.0	n/a	n/a	1.0	1.101	Sem/Sem_run-01/stereo_2SL65A0.wav	1.0	1	0.851
111.0845	3.83	S_H	1.0	n/a	n/a	1.0	1.229	Sem/Sem_run-01/stereo_1SH07A0.wav	1.0	1	0.9790000000000001
114.9207	4.3439999999999985	S_C	1.0	n/a	n/a	1.0	1.317	Sem/Sem_run-01/ContS07.wav	1.0	1	2.067
119.2738	3.5	S_H	1.0	n/a	n/a	1.0	1.213	Sem/Sem_run-01/stereo_1SH03A0.wav	1.0	1	0.9630000000000001
122.7765	3.919	S_U	2.0	n/a	n/a	2.0	1.577	Sem/Sem_run-01/stereo_1SU45A0.wav	2.0	1	1.327
126.697	3.5	S_H	1.0	n/a	n/a	n/a	n/a	Sem/Sem_run-01/stereo_1SH06A0.wav	n/a	0	n/a
130.1996	3.392	S_L	1.0	n/a	n/a	1.0	1.607	Sem/Sem_run-01/stereo_2SL62A0.wav	1.0	1	1.357
133.6021	3.54	S_C	1.0	n/a	n/a	1.0	0.633	Sem/Sem_run-01/ContS19.wav	1.0	1	1.383
137.1547	4.4	S_H	1.0	n/a	n/a	1.0	1.891	Sem/Sem_run-01/stereo_1SH15A0.wav	1.0	1	1.641
141.5578	3.342	S_H	1.0	n/a	n/a	1.0	1.287	Sem/Sem_run-01/stereo_1SH11A0.wav	1.0	1	1.037
144.9103	3.385	S_U	2.0	n/a	n/a	2.0	1.5219999999999998	Sem/Sem_run-01/stereo_1SU44A0.wav	2.0	1	1.2719999999999998
148.2972	3.4160000000000004	S_H	1.0	n/a	n/a	1.0	1.714	Sem/Sem_run-01/stereo_2SH56A0.wav	1.0	1	1.464
151.7164	3.849	S_U	2.0	n/a	n/a	1.0	1.7409999999999999	Sem/Sem_run-01/stereo_2SU82A0.wav	1.0	0	1.491
155.5691	3.934	S_C	1.0	n/a	n/a	1.0	0.09	Sem/Sem_run-01/ContS13.wav	1.0	1	0.84
159.506	4.309	S_L	1.0	n/a	n/a	1.0	1.383	Sem/Sem_run-01/stereo_2SL64A0.wav	1.0	1	1.133
163.8257	4.413	S_C	1.0	1.0	0.745	n/a	n/a	Sem/Sem_run-01/ContS17.wav	1.0	1	0.745
168.2456	4.2	S_U	2.0	n/a	n/a	2.0	2.0140000000000002	Sem/Sem_run-01/stereo_2SU90A0.wav	2.0	1	1.7639999999999998
172.4489	3.846	S_U	2.0	n/a	n/a	2.0	1.7009999999999998	Sem/Sem_run-01/stereo_2SU88A0.wav	2.0	1	1.4509999999999998
176.3017	3.3939999999999997	S_C	1.0	n/a	n/a	1.0	0.281	Sem/Sem_run-01/ContS01.wav	1.0	1	1.0310000000000001
179.7041	4.013	S_C	1.0	n/a	n/a	1.0	0.9520000000000001	Sem/Sem_run-01/ContS23.wav	1.0	1	1.702
183.7237	4.227	S_H	1.0	n/a	n/a	1.0	1.4969999999999999	Sem/Sem_run-01/stereo_1SH08A0.wav	1.0	1	1.247
