onset	duration	trial_type	correct	window1_response	window1_RT	window2_response	window2_RT	stim_file	calculated_response	calculated_accuracy	calculated_RT
1.1340000000000001	4.2	S_U	2.0	n/a	n/a	2.0	2.136	Sem/Sem_run-01/stereo_1SU41A0.wav	2.0	1	1.8860000000000001
5.35	3.596	S_C	1.0	n/a	n/a	1.0	1.275	Sem/Sem_run-01/ContS29.wav	1.0	1	2.025
8.95	3.425	S_U	2.0	n/a	n/a	2.0	1.959	Sem/Sem_run-01/stereo_2SU87A0.wav	2.0	1	1.709
12.383	3.933	S_H	1.0	n/a	n/a	1.0	1.392	Sem/Sem_run-01/stereo_1SH13A0.wav	1.0	1	1.142
16.316	4.323	S_H	1.0	n/a	n/a	1.0	1.972	Sem/Sem_run-01/stereo_1SH05A0.wav	1.0	1	1.722
20.65	4.073	S_C	1.0	n/a	n/a	1.0	1.308	Sem/Sem_run-01/ContS31.wav	1.0	1	2.058
24.733	3.869	S_L	1.0	n/a	n/a	1.0	2.254	Sem/Sem_run-01/stereo_2SL63A0.wav	1.0	1	2.004
28.616	3.75	S_L	1.0	n/a	n/a	2.0	2.07	Sem/Sem_run-01/stereo_1SL29A0.wav	2.0	0	1.8199999999999998
32.366	4.3660000000000005	S_U	2.0	n/a	n/a	2.0	1.868	Sem/Sem_run-01/stereo_2SU78A0.wav	2.0	1	1.618
36.733000000000004	3.3	S_L	1.0	n/a	n/a	n/a	n/a	Sem/Sem_run-01/stereo_1SL17A0.wav	n/a	0	n/a
40.032	3.884	S_C	1.0	1.0	0.445	1.0	1.87	Sem/Sem_run-01/ContS05.wav	1.0	1	0.445
43.916000000000004	4.371	S_H	1.0	n/a	n/a	1.0	1.608	Sem/Sem_run-01/stereo_2SH58A0.wav	1.0	1	1.358
48.299	4.329	S_L	1.0	n/a	n/a	1.0	2.416	Sem/Sem_run-01/stereo_2SL72A0.wav	1.0	1	2.166
52.632	3.94	S_H	1.0	n/a	n/a	n/a	n/a	Sem/Sem_run-01/stereo_2SH57A0.wav	n/a	0	n/a
56.582	4.2	S_U	2.0	n/a	n/a	2.0	1.828	Sem/Sem_run-01/stereo_2SU83A0.wav	2.0	1	1.578
60.782	3.474	S_C	1.0	n/a	n/a	1.0	1.3419999999999999	Sem/Sem_run-01/ContS11.wav	1.0	1	2.092
64.265	4.271	S_L	1.0	n/a	n/a	1.0	2.99	Sem/Sem_run-01/stereo_1SL26A0.wav	1.0	1	2.74
68.548	3.91	S_L	1.0	n/a	n/a	1.0	1.51	Sem/Sem_run-01/stereo_1SL25A0.wav	1.0	1	1.26
72.465	4.479	S_C	1.0	n/a	n/a	1.0	0.778	Sem/Sem_run-01/ContS25.wav	1.0	1	1.528
76.94800000000002	3.378	S_U	2.0	n/a	n/a	2.0	1.5719999999999998	Sem/Sem_run-01/stereo_2SU81A0.wav	2.0	1	1.3219999999999998
80.331	3.42	S_L	1.0	n/a	n/a	1.0	1.9769999999999999	Sem/Sem_run-01/stereo_1SL27A0.wav	1.0	1	1.727
83.765	4.3439999999999985	S_L	1.0	n/a	n/a	1.0	2.347	Sem/Sem_run-01/stereo_1SL30A0.wav	1.0	1	2.097
88.11399999999998	3.909	S_L	1.0	n/a	n/a	1.0	2.535	Sem/Sem_run-01/stereo_2SL71A0.wav	1.0	1	2.285
92.031	3.867	S_H	1.0	n/a	n/a	1.0	2.092	Sem/Sem_run-01/stereo_1SH04A0.wav	1.0	1	1.842
95.898	3.828	S_U	2.0	n/a	n/a	2.0	1.675	Sem/Sem_run-01/stereo_1SU37A0.wav	2.0	1	1.425
99.73100000000001	4.565	S_C	1.0	n/a	n/a	1.0	1.514	Sem/Sem_run-01/ContS35.wav	1.0	1	2.2640000000000002
104.29700000000001	3.3	S_U	2.0	n/a	n/a	n/a	n/a	Sem/Sem_run-01/stereo_1SU35A0.wav	1.0	0	2.8129999999999997
107.59700000000001	3.477	S_L	1.0	1.0	0.513	n/a	n/a	Sem/Sem_run-01/stereo_2SL65A0.wav	n/a	0	n/a
111.08	3.83	S_H	1.0	n/a	n/a	1.0	2.184	Sem/Sem_run-01/stereo_1SH07A0.wav	1.0	1	1.9340000000000002
114.914	4.3439999999999985	S_C	1.0	n/a	n/a	1.0	0.902	Sem/Sem_run-01/ContS07.wav	1.0	1	1.6520000000000001
119.264	3.5	S_H	1.0	n/a	n/a	n/a	n/a	Sem/Sem_run-01/stereo_1SH03A0.wav	n/a	0	n/a
122.78	3.919	S_U	2.0	n/a	n/a	2.0	1.995	Sem/Sem_run-01/stereo_1SU45A0.wav	2.0	1	1.745
126.713	3.5	S_H	1.0	n/a	n/a	n/a	n/a	Sem/Sem_run-01/stereo_1SH06A0.wav	n/a	0	n/a
130.213	3.392	S_L	1.0	n/a	n/a	n/a	n/a	Sem/Sem_run-01/stereo_2SL62A0.wav	n/a	0	n/a
133.613	3.54	S_C	1.0	1.0	0.218	1.0	0.603	Sem/Sem_run-01/ContS19.wav	1.0	1	0.218
137.16299999999998	4.4	S_H	1.0	n/a	n/a	1.0	2.949	Sem/Sem_run-01/stereo_1SH15A0.wav	1.0	1	2.699
141.563	3.342	S_H	1.0	n/a	n/a	n/a	n/a	Sem/Sem_run-01/stereo_1SH11A0.wav	n/a	0	n/a
144.91299999999995	3.385	S_U	2.0	n/a	n/a	2.0	1.546	Sem/Sem_run-01/stereo_1SU44A0.wav	2.0	1	1.296
148.313	3.4160000000000004	S_H	1.0	n/a	n/a	n/a	n/a	Sem/Sem_run-01/stereo_2SH56A0.wav	n/a	0	n/a
151.72899999999996	3.849	S_U	2.0	n/a	n/a	2.0	1.9269999999999998	Sem/Sem_run-01/stereo_2SU82A0.wav	2.0	1	1.677
155.579	3.934	S_C	1.0	n/a	n/a	1.0	1.577	Sem/Sem_run-01/ContS13.wav	1.0	1	2.327
159.529	4.309	S_L	1.0	n/a	n/a	1.0	2.19	Sem/Sem_run-01/stereo_2SL64A0.wav	1.0	1	1.94
163.84599999999998	4.413	S_C	1.0	n/a	n/a	1.0	1.3259999999999998	Sem/Sem_run-01/ContS17.wav	1.0	1	2.0759999999999996
168.262	4.2	S_U	2.0	n/a	n/a	n/a	n/a	Sem/Sem_run-01/stereo_2SU90A0.wav	n/a	0	n/a
172.46200000000005	3.846	S_U	2.0	n/a	n/a	n/a	n/a	Sem/Sem_run-01/stereo_2SU88A0.wav	n/a	0	n/a
176.312	3.3939999999999997	S_C	1.0	2.0	0.28600000000000003	1.0	0.9570000000000001	Sem/Sem_run-01/ContS01.wav	2.0	0	0.28600000000000003
179.71200000000005	4.013	S_C	1.0	n/a	n/a	1.0	1.484	Sem/Sem_run-01/ContS23.wav	1.0	1	2.234
183.72799999999998	4.227	S_H	1.0	n/a	n/a	1.0	2.818	Sem/Sem_run-01/stereo_1SH08A0.wav	1.0	1	2.568
