onset	duration	trial_type	correct	window1_response	window1_RT	window2_response	window2_RT	stim_file	calculated_response	calculated_accuracy	calculated_RT
1.068	3.4539999999999997	P_R	1.0	n/a	n/a	1.0	1.39	Phon/Phon_run-01/stereo_PR01.wav	1.0	1	1.14
4.537	3.767	P_O	1.0	n/a	n/a	1.0	1.18	Phon/Phon_run-01/PC018.wav	1.0	1	0.9299999999999999
8.307	3.391	P_O	1.0	n/a	n/a	1.0	1.3319999999999999	Phon/Phon_run-01/PC009.wav	1.0	1	1.082
11.709000000000001	4.374	P_C	1.0	n/a	n/a	1.0	1.3630000000000002	Phon/Phon_run-01/ContS11.wav	1.0	1	2.1130000000000004
16.096	3.345	P_U	2.0	n/a	n/a	2.0	1.785	Phon/Phon_run-01/PM002.wav	2.0	1	1.535
19.449	4.4510000000000005	P_C	1.0	n/a	n/a	1.0	1.369	Phon/Phon_run-01/ContS21.wav	1.0	1	2.1189999999999998
23.90199999999999	4.382	P_O	1.0	n/a	n/a	1.0	1.604	Phon/Phon_run-01/PC005.wav	1.0	1	1.354
28.289	3.3	P_U	2.0	n/a	n/a	2.0	1.8559999999999999	Phon/Phon_run-01/stereo_PU26.wav	2.0	1	1.606
31.590999999999998	4.324	P_C	1.0	n/a	n/a	1.0	1.238	Phon/Phon_run-01/ContS03.wav	1.0	1	1.988
35.92800000000001	4.378	P_R	1.0	n/a	n/a	1.0	1.3730000000000002	Phon/Phon_run-01/stereo_PR29.wav	1.0	1	1.1230000000000002
40.315	3.4810000000000003	P_U	2.0	n/a	n/a	2.0	1.24	Phon/Phon_run-01/PM020.wav	2.0	1	0.99
43.801	4.393	P_O	1.0	n/a	n/a	1.0	1.348	Phon/Phon_run-01/PC027.wav	1.0	1	1.098
48.20399999999999	4.4	P_R	1.0	n/a	n/a	1.0	1.4680000000000002	Phon/Phon_run-01/stereo_PR11.wav	1.0	1	1.2180000000000002
52.608000000000004	3.884	P_C	1.0	n/a	n/a	1.0	1.391	Phon/Phon_run-01/ContS05.wav	1.0	1	2.141
56.494	3.891	P_U	2.0	n/a	n/a	2.0	1.421	Phon/Phon_run-01/stereo_PU28.wav	2.0	1	1.171
60.397	4.4	P_O	1.0	n/a	n/a	1.0	1.4409999999999998	Phon/Phon_run-01/PC013.wav	1.0	1	1.1909999999999998
64.8	3.513	P_C	1.0	n/a	n/a	1.0	1.402	Phon/Phon_run-01/ContS17.wav	1.0	1	2.152
68.32	4.4	P_U	2.0	n/a	n/a	2.0	1.3319999999999999	Phon/Phon_run-01/PM027.wav	2.0	1	1.082
72.723	4.4	P_O	1.0	n/a	n/a	2.0	2.017	Phon/Phon_run-01/PC021.wav	2.0	0	1.767
77.126	4.496	P_C	1.0	n/a	n/a	1.0	1.4669999999999999	Phon/Phon_run-01/ContS29.wav	1.0	1	2.217
81.63	3.3680000000000003	P_R	1.0	n/a	n/a	1.0	1.284	Phon/Phon_run-01/stereo_PR25.wav	1.0	1	1.034
84.999	3.95	P_O	1.0	n/a	n/a	n/a	n/a	Phon/Phon_run-01/PC012.wav	n/a	0	n/a
88.95200000000001	3.95	P_U	2.0	n/a	n/a	1.0	1.3559999999999999	Phon/Phon_run-01/PM003.wav	1.0	0	1.106
92.905	3.939	P_O	1.0	n/a	n/a	1.0	1.239	Phon/Phon_run-01/PC004.wav	1.0	1	0.9890000000000001
96.85799999999999	3.59	P_C	1.0	n/a	n/a	1.0	1.334	Phon/Phon_run-01/ContS27.wav	1.0	1	2.084
100.461	4.296	P_U	2.0	n/a	n/a	1.0	1.2670000000000001	Phon/Phon_run-01/stereo_PU21.wav	1.0	0	1.017
104.764	3.862	P_R	1.0	n/a	n/a	1.0	1.123	Phon/Phon_run-01/stereo_PR26.wav	1.0	1	0.873
108.634	3.95	P_O	1.0	n/a	n/a	1.0	1.246	Phon/Phon_run-01/PC026.wav	1.0	1	0.996
112.587	3.5	P_O	1.0	n/a	n/a	1.0	1.743	Phon/Phon_run-01/PC025.wav	1.0	1	1.493
116.09	4.013	P_C	1.0	n/a	n/a	1.0	1.3780000000000001	Phon/Phon_run-01/ContS23.wav	1.0	1	2.128
120.11	3.792	P_R	1.0	n/a	n/a	1.0	1.311	Phon/Phon_run-01/stereo_PR18.wav	1.0	1	1.061
123.913	3.346	P_U	2.0	n/a	n/a	2.0	1.3259999999999998	Phon/Phon_run-01/stereo_PU19.wav	2.0	1	1.0759999999999998
127.265	3.891	P_R	1.0	n/a	n/a	1.0	1.449	Phon/Phon_run-01/stereo_PR03.wav	1.0	1	1.199
131.168	3.355	P_O	1.0	n/a	n/a	1.0	1.484	Phon/Phon_run-01/PC003.wav	1.0	1	1.234
134.537	3.951	P_C	1.0	n/a	n/a	1.0	1.19	Phon/Phon_run-01/ContS15.wav	1.0	1	1.94
138.49	3.74	P_U	2.0	n/a	n/a	1.0	1.305	Phon/Phon_run-01/stereo_PU16.wav	1.0	0	1.055
142.243	3.95	P_R	1.0	n/a	n/a	1.0	1.952	Phon/Phon_run-01/stereo_PR10.wav	1.0	1	1.702
146.196	3.464	P_C	1.0	n/a	n/a	1.0	1.261	Phon/Phon_run-01/ContS09.wav	1.0	1	2.011
149.666	4.275	P_R	1.0	n/a	n/a	1.0	1.412	Phon/Phon_run-01/stereo_PR04.wav	1.0	1	1.162
153.952	3.95	P_U	2.0	n/a	n/a	2.0	1.4580000000000002	Phon/Phon_run-01/PM023.wav	2.0	1	1.2080000000000002
157.905	4.4	P_U	2.0	n/a	n/a	1.0	1.9569999999999999	Phon/Phon_run-01/PM001.wav	1.0	0	1.707
162.309	3.665	P_C	1.0	n/a	n/a	1.0	1.524	Phon/Phon_run-01/ContS35.wav	1.0	1	2.274
165.97799999999995	3.463	P_O	1.0	n/a	n/a	1.0	1.354	Phon/Phon_run-01/PC017.wav	1.0	1	1.104
169.44799999999995	4.332	P_R	1.0	n/a	n/a	1.0	1.327	Phon/Phon_run-01/stereo_PR19.wav	1.0	1	1.077
173.78400000000005	4.083	P_C	1.0	n/a	n/a	1.0	1.681	Phon/Phon_run-01/ContS33.wav	1.0	1	2.431
177.87099999999995	3.5	P_R	1.0	n/a	n/a	1.0	1.557	Phon/Phon_run-01/stereo_PR17.wav	1.0	1	1.307
181.373	4.2669999999999995	P_U	2.0	n/a	n/a	2.0	2.015	Phon/Phon_run-01/PM009.wav	2.0	1	1.7650000000000001
185.643	3.4389999999999996	P_R	1.0	n/a	n/a	1.0	1.248	Phon/Phon_run-01/stereo_PR09.wav	1.0	1	0.998
