onset	duration	trial_type	correct	window1_response	window1_RT	window2_response	window2_RT	stim_file	calculated_response	calculated_accuracy	calculated_RT
1.068	7.034	SP_W	1.0	n/a	n/a	1.0	4.769	Plaus/Plaus_run-01/stereo_PW85.wav	1.0	1	2.622
8.106	5.641	SP_I	2.0	n/a	n/a	2.0	2.29	Plaus/Plaus_run-01/stereo_PI11.wav	2.0	1	1.3699999999999999
13.761	6.77	SP_C	1.0	n/a	n/a	1.0	0.40700000000000003	Plaus/Plaus_run-01/CoM08b.wav	1.0	1	1.157
20.533	7.327000000000001	SP_W	1.0	n/a	n/a	1.0	3.8939999999999997	Plaus/Plaus_run-01/stereo_PW72.wav	1.0	1	1.9140000000000001
27.872	6.145	SP_C	1.0	n/a	n/a	1.0	0.182	Plaus/Plaus_run-01/CoM05d.wav	1.0	1	0.9319999999999999
34.026	5.181	SP_I	2.0	n/a	n/a	2.0	3.636	Plaus/Plaus_run-01/stereo_PI65.wav	2.0	1	2.694
39.214	5.092	SP_S	1.0	n/a	n/a	n/a	n/a	Plaus/Plaus_run-01/stereo_PC13.wav	n/a	0	n/a
44.31800000000001	7.355	SP_C	1.0	1.0	0.6859999999999999	1.0	4.074	Plaus/Plaus_run-01/CoM06l.wav	1.0	1	0.6859999999999999
51.673	7.47	SP_I	2.0	n/a	n/a	2.0	4.1160000000000005	Plaus/Plaus_run-01/stereo_PI90.wav	2.0	1	1.9450000000000007
59.146	7.399	SP_S	1.0	n/a	n/a	1.0	4.212	Plaus/Plaus_run-01/stereo_PC35.wav	1.0	1	1.9449999999999998
66.55199999999999	5.685	SP_S	1.0	n/a	n/a	1.0	3.326	Plaus/Plaus_run-01/stereo_PC47.wav	1.0	1	2.317
72.23899999999998	5.669	SP_W	1.0	n/a	n/a	1.0	2.718	Plaus/Plaus_run-01/stereo_PW19.wav	1.0	1	1.712
77.91	7.9	SP_C	1.0	n/a	n/a	n/a	n/a	Plaus/Plaus_run-01/CoM03l.wav	n/a	0	n/a
85.816	5.145	SP_I	2.0	n/a	n/a	1.0	3.241	Plaus/Plaus_run-01/stereo_PI09.wav	1.0	0	2.2330000000000005
90.97	6.9170000000000025	SP_W	1.0	n/a	n/a	2.0	3.985	Plaus/Plaus_run-01/stereo_PW30.wav	2.0	0	1.8649999999999998
97.892	5.738	SP_S	1.0	n/a	n/a	1.0	3.083	Plaus/Plaus_run-01/stereo_PC14.wav	1.0	1	1.9120000000000001
103.63	6.276	SP_W	1.0	n/a	n/a	1.0	2.89	Plaus/Plaus_run-01/stereo_PW50.wav	1.0	1	2.068
109.918	5.49	SP_C	1.0	n/a	n/a	1.0	0.424	Plaus/Plaus_run-01/CoM03d.wav	1.0	1	1.174
115.422	5.7	SP_I	2.0	n/a	n/a	1.0	3.833	Plaus/Plaus_run-01/stereo_PI67.wav	1.0	0	2.942
121.127	7.237	SP_S	1.0	n/a	n/a	1.0	3.685	Plaus/Plaus_run-01/stereo_PC68.wav	1.0	1	1.7189999999999999
128.366	6.49	SP_C	1.0	1.0	0.708	n/a	n/a	Plaus/Plaus_run-01/CoM03b.wav	1.0	1	0.708
134.871	6.25	SP_W	1.0	n/a	n/a	1.0	3.216	Plaus/Plaus_run-01/stereo_PW61.wav	1.0	1	2.236
141.126	6.952999999999999	SP_I	2.0	n/a	n/a	1.0	4.301	Plaus/Plaus_run-01/stereo_PI32.wav	1.0	0	2.136
148.08100000000005	7.085	SP_C	1.0	n/a	n/a	1.0	0.39299999999999996	Plaus/Plaus_run-01/CoM02e.wav	1.0	1	1.143
155.17	6.3610000000000015	SP_S	1.0	n/a	n/a	1.0	3.647	Plaus/Plaus_run-01/stereo_PC24.wav	1.0	1	1.3889999999999998
161.541	5.1110000000000015	SP_W	1.0	n/a	n/a	2.0	2.7680000000000002	Plaus/Plaus_run-01/stereo_PW53.wav	2.0	0	1.754
166.662	6.2860000000000005	SP_I	2.0	n/a	n/a	1.0	3.8789999999999996	Plaus/Plaus_run-01/stereo_PI42.wav	1.0	0	1.6830000000000003
172.95	6.577000000000001	SP_S	1.0	n/a	n/a	1.0	3.0380000000000003	Plaus/Plaus_run-01/stereo_PC57.wav	1.0	1	1.8430000000000002
179.53900000000004	5.273	SP_W	1.0	n/a	n/a	2.0	3.085	Plaus/Plaus_run-01/stereo_PW18.wav	2.0	0	1.918
184.826	5.77	SP_C	1.0	n/a	n/a	1.0	0.51	Plaus/Plaus_run-01/CoM09b.wav	1.0	1	1.26
190.597	6.731	SP_S	1.0	n/a	n/a	1.0	3.7089999999999996	Plaus/Plaus_run-01/stereo_PC26.wav	1.0	1	1.609
197.336	7.212999999999999	SP_I	2.0	n/a	n/a	2.0	4.437	Plaus/Plaus_run-01/stereo_PI33.wav	2.0	1	2.454
204.558	5.181	SP_S	1.0	n/a	n/a	1.0	3.075	Plaus/Plaus_run-01/stereo_PC01.wav	1.0	1	2.1340000000000003
209.745	6.238	SP_S	1.0	n/a	n/a	1.0	3.477	Plaus/Plaus_run-01/stereo_PC36.wav	1.0	1	1.4309999999999996
215.983	7.73	SP_C	1.0	n/a	n/a	1.0	0.151	Plaus/Plaus_run-01/CoM10e.wav	1.0	1	0.901
223.723	6.843	SP_I	2.0	n/a	n/a	1.0	3.986	Plaus/Plaus_run-01/stereo_PI45.wav	1.0	0	1.8590000000000004
230.578	6.101	SP_W	1.0	n/a	n/a	n/a	n/a	Plaus/Plaus_run-01/stereo_PW28.wav	n/a	0	n/a
236.683	7.419	SP_W	1.0	n/a	n/a	1.0	3.82	Plaus/Plaus_run-01/stereo_PW86.wav	1.0	1	1.7840000000000003
244.105	6.54	SP_C	1.0	n/a	n/a	1.0	0.11199999999999999	Plaus/Plaus_run-01/CoM05e.wav	1.0	1	0.862
250.66	6.247000000000001	SP_I	2.0	n/a	n/a	1.0	2.474	Plaus/Plaus_run-01/stereo_PI12.wav	1.0	0	1.6030000000000002
