onset	duration	trial_type	correct	window1_response	window1_RT	window2_response	window2_RT	stim_file	calculated_response	calculated_accuracy	calculated_RT
1.067	3.5	P_R	1.0	n/a	n/a	1.0	1.633	Phon/Phon_run-02/stereo_PR20.wav	1.0	1	1.383
4.57	4.235	P_O	1.0	n/a	n/a	2.0	1.5130000000000001	Phon/Phon_run-02/PC034.wav	2.0	0	1.263
8.806000000000003	3.375	P_R	1.0	n/a	n/a	1.0	1.27	Phon/Phon_run-02/stereo_PR13.wav	1.0	1	1.02
12.192	3.474	P_C	1.0	n/a	n/a	1.0	0.115	Phon/Phon_run-02/ContS12.wav	1.0	1	0.865
15.677999999999999	3.875	P_U	2.0	n/a	n/a	2.0	1.4769999999999999	Phon/Phon_run-02/PM025.wav	2.0	1	1.227
19.565	3.726	P_R	1.0	n/a	n/a	1.0	1.057	Phon/Phon_run-02/stereo_PR22.wav	1.0	1	0.8069999999999999
23.301	3.451	P_O	1.0	n/a	n/a	1.0	1.402	Phon/Phon_run-02/PC014.wav	1.0	1	1.152
26.754	3.779	P_C	1.0	n/a	n/a	1.0	0.359	Phon/Phon_run-02/ContS02.wav	1.0	1	1.109
30.54	3.821	P_U	2.0	n/a	n/a	2.0	1.249	Phon/Phon_run-02/stereo_PU18.wav	2.0	1	0.9990000000000001
34.376	3.49	P_U	2.0	n/a	n/a	2.0	1.52	Phon/Phon_run-02/stereo_PU12.wav	2.0	1	1.27
37.879	4.38	P_C	1.0	n/a	n/a	1.0	0.086	Phon/Phon_run-02/ContS32.wav	1.0	1	0.836
42.26600000000001	4.0969999999999995	P_R	1.0	n/a	n/a	1.0	1.686	Phon/Phon_run-02/stereo_PR16.wav	1.0	1	1.436
46.369	3.5	P_O	1.0	n/a	n/a	1.0	2.077	Phon/Phon_run-02/PC022.wav	1.0	1	1.827
49.872	4.0760000000000005	P_R	1.0	n/a	n/a	1.0	1.485	Phon/Phon_run-02/stereo_PR08.wav	1.0	1	1.235
53.958	3.5	P_O	1.0	n/a	n/a	1.0	2.146	Phon/Phon_run-02/PC028.wav	1.0	1	1.896
57.46100000000001	3.5	P_U	2.0	n/a	n/a	2.0	1.847	Phon/Phon_run-02/stereo_PU27.wav	2.0	1	1.597
60.964	3.819	P_C	1.0	n/a	n/a	1.0	0.17	Phon/Phon_run-02/ContS06.wav	1.0	1	0.92
64.783	4.25	P_O	1.0	n/a	n/a	1.0	2.112	Phon/Phon_run-02/PC031.wav	1.0	1	1.862
69.03699999999999	3.662	P_C	1.0	n/a	n/a	1.0	0.146	Phon/Phon_run-02/ContS36.wav	1.0	1	0.896
72.706	3.823	P_O	1.0	n/a	n/a	1.0	1.338	Phon/Phon_run-02/PC023.wav	1.0	1	1.088
76.542	4.323	P_C	1.0	n/a	n/a	1.0	0.69	Phon/Phon_run-02/ContS24.wav	1.0	1	1.44
80.87899999999998	3.865	P_U	2.0	n/a	n/a	2.0	1.78	Phon/Phon_run-02/PM004.wav	2.0	1	1.53
84.749	3.875	P_O	1.0	n/a	n/a	1.0	1.764	Phon/Phon_run-02/PC007.wav	1.0	1	1.514
88.635	4.25	P_U	2.0	n/a	n/a	2.0	1.244	Phon/Phon_run-02/PM011.wav	2.0	1	0.994
92.88799999999999	4.362	P_C	1.0	n/a	n/a	1.0	0.038	Phon/Phon_run-02/ContS30.wav	1.0	1	0.788
97.258	3.875	P_O	1.0	n/a	n/a	1.0	1.903	Phon/Phon_run-02/PC030.wav	1.0	1	1.653
101.145	3.3360000000000003	P_R	1.0	n/a	n/a	1.0	1.5019999999999998	Phon/Phon_run-02/stereo_PR05.wav	1.0	1	1.2519999999999998
104.48100000000001	4.113	P_U	2.0	n/a	n/a	2.0	1.455	Phon/Phon_run-02/stereo_PU01.wav	2.0	1	1.205
108.601	4.1739999999999995	P_U	2.0	n/a	n/a	2.0	1.838	Phon/Phon_run-02/PM029.wav	2.0	1	1.588
112.787	3.4539999999999997	P_C	1.0	n/a	n/a	1.0	0.23600000000000002	Phon/Phon_run-02/ContS08.wav	1.0	1	0.986
116.257	3.446	P_R	1.0	n/a	n/a	1.0	1.653	Phon/Phon_run-02/stereo_PR30.wav	1.0	1	1.403
119.709	3.85	P_R	1.0	n/a	n/a	1.0	1.319	Phon/Phon_run-02/stereo_PR07.wav	1.0	1	1.069
123.56200000000001	3.438	P_U	2.0	n/a	n/a	n/a	n/a	Phon/Phon_run-02/stereo_PU02.wav	n/a	0	n/a
127.015	3.915	P_C	1.0	n/a	n/a	1.0	0.331	Phon/Phon_run-02/ContS20.wav	1.0	1	1.081
130.935	3.487	P_U	2.0	n/a	n/a	2.0	2.242	Phon/Phon_run-02/PM021.wav	2.0	1	1.992
134.437	3.965	P_C	1.0	n/a	n/a	1.0	0.532	Phon/Phon_run-02/ContS26.wav	1.0	1	1.282
138.407	3.792	P_R	1.0	n/a	n/a	1.0	1.251	Phon/Phon_run-02/stereo_PR31.wav	1.0	1	1.001
142.21	4.135	P_O	1.0	n/a	n/a	1.0	1.8840000000000001	Phon/Phon_run-02/PC024.wav	1.0	1	1.634
146.347	3.875	P_U	2.0	n/a	n/a	2.0	1.3230000000000002	Phon/Phon_run-02/PM010.wav	2.0	1	1.0730000000000002
150.233	3.875	P_O	1.0	n/a	n/a	1.0	2.615	Phon/Phon_run-02/PC015.wav	1.0	1	2.365
154.119	4.245	P_C	1.0	n/a	n/a	1.0	0.892	Phon/Phon_run-02/ContS14.wav	1.0	1	1.642
158.373	3.854	P_R	1.0	n/a	n/a	1.0	1.2109999999999999	Phon/Phon_run-02/stereo_PR14.wav	1.0	1	0.9610000000000001
162.24200000000005	4.239	P_O	1.0	n/a	n/a	1.0	1.757	Phon/Phon_run-02/PC008.wav	1.0	1	1.507
166.49599999999995	4.25	P_U	2.0	n/a	n/a	2.0	2.0580000000000003	Phon/Phon_run-02/stereo_PU11.wav	2.0	1	1.8080000000000003
170.74900000000005	3.523	P_C	1.0	n/a	n/a	1.0	0.049	Phon/Phon_run-02/ContS18.wav	1.0	1	0.799
174.285	3.429	P_O	1.0	n/a	n/a	n/a	n/a	Phon/Phon_run-02/PC006.wav	n/a	0	n/a
177.72099999999998	4.18	P_R	1.0	n/a	n/a	1.0	1.824	Phon/Phon_run-02/stereo_PR32.wav	1.0	1	1.574
181.907	4.104	P_R	1.0	n/a	n/a	1.0	1.4480000000000002	Phon/Phon_run-02/stereo_PR24.wav	1.0	1	1.1980000000000002
