onset	duration	trial_type	correct	window1_response	window1_RT	window2_response	window2_RT	stim_file	calculated_response	calculated_accuracy	calculated_RT
1.0964	7.034	SP_W	1.0	n/a	n/a	1.0	3.859	Plaus/Plaus_run-01/stereo_PW85.wav	1.0	1	1.7119999999999997
8.1359	5.641	SP_I	2.0	n/a	n/a	2.0	2.326	Plaus/Plaus_run-01/stereo_PI11.wav	2.0	1	1.406
13.79	6.77	SP_C	1.0	1.0	0.731	1.0	5.586	Plaus/Plaus_run-01/CoM08b.wav	1.0	1	0.731
20.5628	7.327000000000001	SP_W	1.0	n/a	n/a	1.0	3.5189999999999997	Plaus/Plaus_run-01/stereo_PW72.wav	1.0	1	1.5390000000000001
27.9014	6.145	SP_C	1.0	n/a	n/a	1.0	0.185	Plaus/Plaus_run-01/CoM05d.wav	1.0	1	0.935
34.0559	5.181	SP_I	2.0	n/a	n/a	2.0	2.819	Plaus/Plaus_run-01/stereo_PI65.wav	2.0	1	1.8769999999999998
39.243	5.092	SP_S	1.0	n/a	n/a	1.0	2.897	Plaus/Plaus_run-01/stereo_PC13.wav	1.0	1	1.8339999999999996
44.3468	7.355	SP_C	1.0	n/a	n/a	1.0	0.131	Plaus/Plaus_run-01/CoM06l.wav	1.0	1	0.881
51.7032	7.47	SP_I	2.0	n/a	n/a	2.0	5.035	Plaus/Plaus_run-01/stereo_PI90.wav	2.0	1	2.8640000000000003
59.1764	7.399	SP_S	1.0	n/a	n/a	1.0	4.46	Plaus/Plaus_run-01/stereo_PC35.wav	1.0	1	2.193
66.5818	5.685	SP_S	1.0	n/a	n/a	1.0	2.563	Plaus/Plaus_run-01/stereo_PC47.wav	1.0	1	1.554
72.2704	5.669	SP_W	1.0	n/a	n/a	1.0	3.4130000000000003	Plaus/Plaus_run-01/stereo_PW19.wav	1.0	1	2.407
77.9423	7.9	SP_C	1.0	n/a	n/a	1.0	0.095	Plaus/Plaus_run-01/CoM03l.wav	1.0	1	0.845
85.8483	5.145	SP_I	2.0	n/a	n/a	2.0	2.728	Plaus/Plaus_run-01/stereo_PI09.wav	2.0	1	1.7200000000000004
91.0021	6.9170000000000025	SP_W	1.0	n/a	n/a	2.0	4.744	Plaus/Plaus_run-01/stereo_PW30.wav	2.0	0	2.6239999999999997
97.9243	5.738	SP_S	1.0	n/a	n/a	1.0	3.411	Plaus/Plaus_run-01/stereo_PC14.wav	1.0	1	2.24
103.6662	6.276	SP_W	1.0	n/a	n/a	1.0	2.967	Plaus/Plaus_run-01/stereo_PW50.wav	1.0	1	2.145
109.954	5.49	SP_C	1.0	n/a	n/a	1.0	0.635	Plaus/Plaus_run-01/CoM03d.wav	1.0	1	1.385
115.458	5.7	SP_I	2.0	n/a	n/a	1.0	3.852	Plaus/Plaus_run-01/stereo_PI67.wav	1.0	0	2.961
121.1625	7.237	SP_S	1.0	n/a	n/a	1.0	3.375	Plaus/Plaus_run-01/stereo_PC68.wav	1.0	1	1.4089999999999998
128.4022	6.49	SP_C	1.0	1.0	0.732	1.0	1.355	Plaus/Plaus_run-01/CoM03b.wav	1.0	1	0.732
134.9065	6.25	SP_W	1.0	n/a	n/a	n/a	n/a	Plaus/Plaus_run-01/stereo_PW61.wav	n/a	0	n/a
141.161	6.952999999999999	SP_I	2.0	n/a	n/a	2.0	3.605	Plaus/Plaus_run-01/stereo_PI32.wav	2.0	1	1.44
148.1173	7.085	SP_C	1.0	n/a	n/a	1.0	0.122	Plaus/Plaus_run-01/CoM02e.wav	1.0	1	0.872
155.2068	6.3610000000000015	SP_S	1.0	n/a	n/a	1.0	4.0969999999999995	Plaus/Plaus_run-01/stereo_PC24.wav	1.0	1	1.8390000000000004
161.5781	5.1110000000000015	SP_W	1.0	n/a	n/a	n/a	n/a	Plaus/Plaus_run-01/stereo_PW53.wav	n/a	0	n/a
166.6985	6.2860000000000005	SP_I	2.0	n/a	n/a	2.0	3.8680000000000003	Plaus/Plaus_run-01/stereo_PI42.wav	2.0	1	1.6720000000000002
172.9876	6.577000000000001	SP_S	1.0	n/a	n/a	1.0	3.2060000000000004	Plaus/Plaus_run-01/stereo_PC57.wav	1.0	1	2.011
179.5757	5.273	SP_W	1.0	n/a	n/a	2.0	3.51	Plaus/Plaus_run-01/stereo_PW18.wav	2.0	0	2.343
184.8629	5.77	SP_C	1.0	n/a	n/a	1.0	1.7990000000000002	Plaus/Plaus_run-01/CoM09b.wav	1.0	1	2.5490000000000004
190.6348	6.731	SP_S	1.0	n/a	n/a	1.0	3.733	Plaus/Plaus_run-01/stereo_PC26.wav	1.0	1	1.633
197.3731	7.212999999999999	SP_I	2.0	n/a	n/a	2.0	3.5060000000000002	Plaus/Plaus_run-01/stereo_PI33.wav	2.0	1	1.5229999999999997
204.595	5.181	SP_S	1.0	n/a	n/a	1.0	2.7310000000000003	Plaus/Plaus_run-01/stereo_PC01.wav	1.0	1	1.7900000000000005
209.7821	6.238	SP_S	1.0	n/a	n/a	1.0	4.175	Plaus/Plaus_run-01/stereo_PC36.wav	1.0	1	2.1289999999999996
216.0211	7.73	SP_C	1.0	n/a	n/a	1.0	3.122	Plaus/Plaus_run-01/CoM10e.wav	1.0	1	3.872
223.7601	6.843	SP_I	2.0	n/a	n/a	1.0	3.576	Plaus/Plaus_run-01/stereo_PI45.wav	1.0	0	1.4490000000000003
230.615	6.101	SP_W	1.0	n/a	n/a	n/a	n/a	Plaus/Plaus_run-01/stereo_PW28.wav	n/a	0	n/a
236.7206	7.419	SP_W	1.0	n/a	n/a	1.0	4.198	Plaus/Plaus_run-01/stereo_PW86.wav	1.0	1	2.162000000000001
244.1438	6.54	SP_C	1.0	1.0	0.695	1.0	0.971	Plaus/Plaus_run-01/CoM05e.wav	1.0	1	0.695
250.6981	6.247000000000001	SP_I	2.0	n/a	n/a	1.0	3.412	Plaus/Plaus_run-01/stereo_PI12.wav	1.0	0	2.541
