onset	duration	trial_type	correct	window1_response	window1_RT	window2_response	window2_RT	stim_file	calculated_response	calculated_accuracy	calculated_RT
1.0925	3.4539999999999997	P_R	1.0	n/a	n/a	1.0	1.163	Phon/Phon_run-01/stereo_PR01.wav	1.0	1	0.913
4.5615	3.767	P_O	1.0	n/a	n/a	1.0	1.518	Phon/Phon_run-01/PC018.wav	1.0	1	1.268
8.3317	3.391	P_O	1.0	n/a	n/a	1.0	2.084	Phon/Phon_run-01/PC009.wav	1.0	1	1.834
11.7341	4.374	P_C	1.0	n/a	n/a	1.0	0.028999999999999998	Phon/Phon_run-01/ContS11.wav	1.0	1	0.779
16.1207	3.345	P_U	2.0	n/a	n/a	2.0	1.062	Phon/Phon_run-01/PM002.wav	2.0	1	0.812
19.473	4.4510000000000005	P_C	1.0	1.0	0.667	n/a	n/a	Phon/Phon_run-01/ContS21.wav	1.0	1	0.667
23.9275	4.382	P_O	1.0	n/a	n/a	1.0	2.701	Phon/Phon_run-01/PC005.wav	1.0	1	2.451
28.314	3.3	P_U	2.0	n/a	n/a	n/a	n/a	Phon/Phon_run-01/stereo_PU26.wav	n/a	0	n/a
31.6165	4.324	P_C	1.0	2.0	0.095	1.0	0.165	Phon/Phon_run-01/ContS03.wav	2.0	0	0.095
35.9529	4.378	P_R	1.0	n/a	n/a	1.0	2.029	Phon/Phon_run-01/stereo_PR29.wav	1.0	1	1.779
40.3393	3.4810000000000003	P_U	2.0	n/a	n/a	1.0	2.039	Phon/Phon_run-01/PM020.wav	1.0	0	1.7890000000000001
43.8252	4.393	P_O	1.0	n/a	n/a	2.0	1.787	Phon/Phon_run-01/PC027.wav	2.0	0	1.537
48.2284	4.4	P_R	1.0	n/a	n/a	1.0	2.239	Phon/Phon_run-01/stereo_PR11.wav	1.0	1	1.9889999999999999
52.6316	3.884	P_C	1.0	n/a	n/a	1.0	0.258	Phon/Phon_run-01/ContS05.wav	1.0	1	1.008
56.5186	3.891	P_U	2.0	n/a	n/a	n/a	n/a	Phon/Phon_run-01/stereo_PU28.wav	n/a	0	n/a
60.4213	4.4	P_O	1.0	n/a	n/a	1.0	2.4330000000000003	Phon/Phon_run-01/PC013.wav	1.0	1	2.1830000000000003
64.8247	3.513	P_C	1.0	n/a	n/a	1.0	0.017	Phon/Phon_run-01/ContS17.wav	1.0	1	0.767
68.3439	4.4	P_U	2.0	n/a	n/a	1.0	2.8480000000000003	Phon/Phon_run-01/PM027.wav	1.0	0	2.5980000000000003
72.7471	4.4	P_O	1.0	n/a	n/a	1.0	1.561	Phon/Phon_run-01/PC021.wav	1.0	1	1.311
77.1504	4.496	P_C	1.0	1.0	0.706	n/a	n/a	Phon/Phon_run-01/ContS29.wav	1.0	1	0.706
81.6536	3.3680000000000003	P_R	1.0	n/a	n/a	1.0	1.3630000000000002	Phon/Phon_run-01/stereo_PR25.wav	1.0	1	1.1130000000000002
85.0239	3.95	P_O	1.0	n/a	n/a	1.0	2.178	Phon/Phon_run-01/PC012.wav	1.0	1	1.928
88.9768	3.95	P_U	2.0	n/a	n/a	2.0	1.6880000000000002	Phon/Phon_run-01/PM003.wav	2.0	1	1.4380000000000002
92.9297	3.939	P_O	1.0	n/a	n/a	1.0	1.4580000000000002	Phon/Phon_run-01/PC004.wav	1.0	1	1.2080000000000002
96.8826	3.59	P_C	1.0	1.0	0.69	n/a	n/a	Phon/Phon_run-01/ContS27.wav	1.0	1	0.69
100.4851	4.296	P_U	2.0	n/a	n/a	1.0	2.7510000000000003	Phon/Phon_run-01/stereo_PU21.wav	1.0	0	2.5010000000000003
104.7882	3.862	P_R	1.0	n/a	n/a	1.0	2.025	Phon/Phon_run-01/stereo_PR26.wav	1.0	1	1.775
108.6576	3.95	P_O	1.0	n/a	n/a	n/a	n/a	Phon/Phon_run-01/PC026.wav	1.0	1	3.117
112.6107	3.5	P_O	1.0	1.0	0.16699999999999998	2.0	1.6380000000000001	Phon/Phon_run-01/PC025.wav	2.0	0	1.388
116.1133	4.013	P_C	1.0	1.0	0.621	n/a	n/a	Phon/Phon_run-01/ContS23.wav	1.0	1	0.621
120.1329	3.792	P_R	1.0	n/a	n/a	1.0	1.208	Phon/Phon_run-01/stereo_PR18.wav	1.0	1	0.958
123.9359	3.346	P_U	2.0	n/a	n/a	2.0	1.4480000000000002	Phon/Phon_run-01/stereo_PU19.wav	2.0	1	1.1980000000000002
127.2885	3.891	P_R	1.0	n/a	n/a	1.0	2.233	Phon/Phon_run-01/stereo_PR03.wav	1.0	1	1.983
131.1913	3.355	P_O	1.0	n/a	n/a	n/a	n/a	Phon/Phon_run-01/PC003.wav	n/a	0	n/a
134.5604	3.951	P_C	1.0	1.0	0.6629999999999999	n/a	n/a	Phon/Phon_run-01/ContS15.wav	1.0	1	0.6629999999999999
138.5144	3.74	P_U	2.0	n/a	n/a	1.0	1.8359999999999999	Phon/Phon_run-01/stereo_PU16.wav	1.0	0	1.586
142.2671	3.95	P_R	1.0	n/a	n/a	1.0	1.44	Phon/Phon_run-01/stereo_PR10.wav	1.0	1	1.19
146.22	3.464	P_C	1.0	n/a	n/a	1.0	0.09300000000000001	Phon/Phon_run-01/ContS09.wav	1.0	1	0.843
149.6892	4.275	P_R	1.0	n/a	n/a	1.0	2.073	Phon/Phon_run-01/stereo_PR04.wav	1.0	1	1.823
153.9756	3.95	P_U	2.0	n/a	n/a	2.0	1.5130000000000001	Phon/Phon_run-01/PM023.wav	2.0	1	1.263
157.9284	4.4	P_U	2.0	n/a	n/a	1.0	2.265	Phon/Phon_run-01/PM001.wav	1.0	0	2.015
162.3319	3.665	P_C	1.0	n/a	n/a	n/a	n/a	Phon/Phon_run-01/ContS35.wav	n/a	0	n/a
166.0011	3.463	P_O	1.0	n/a	n/a	n/a	n/a	Phon/Phon_run-01/PC017.wav	n/a	0	n/a
169.4703	4.332	P_R	1.0	n/a	n/a	1.0	1.3219999999999998	Phon/Phon_run-01/stereo_PR19.wav	1.0	1	1.0719999999999998
173.8067	4.083	P_C	1.0	n/a	n/a	1.0	0.981	Phon/Phon_run-01/ContS33.wav	1.0	1	1.7309999999999999
177.893	3.5	P_R	1.0	n/a	n/a	1.0	1.9809999999999999	Phon/Phon_run-01/stereo_PR17.wav	1.0	1	1.731
181.3956	4.2669999999999995	P_U	2.0	n/a	n/a	2.0	1.3419999999999999	Phon/Phon_run-01/PM009.wav	2.0	1	1.092
185.6658	3.4389999999999996	P_R	1.0	n/a	n/a	1.0	1.6019999999999999	Phon/Phon_run-01/stereo_PR09.wav	1.0	1	1.352
