onset	duration	trial_type	correct	window1_response	window1_RT	window2_response	window2_RT	stim_file	calculated_response	calculated_accuracy	calculated_RT
1.0964	7.034	SP_W	1.0	n/a	n/a	1.0	3.887	Plaus/Plaus_run-01/stereo_PW85.wav	1.0	1	1.7399999999999998
8.1359	5.641	SP_I	2.0	n/a	n/a	2.0	2.615	Plaus/Plaus_run-01/stereo_PI11.wav	2.0	1	1.695
13.79	6.77	SP_C	1.0	n/a	n/a	1.0	0.226	Plaus/Plaus_run-01/CoM08b.wav	1.0	1	0.976
20.5628	7.327000000000001	SP_W	1.0	n/a	n/a	1.0	3.605	Plaus/Plaus_run-01/stereo_PW72.wav	1.0	1	1.625
27.9014	6.145	SP_C	1.0	n/a	n/a	1.0	0.057999999999999996	Plaus/Plaus_run-01/CoM05d.wav	1.0	1	0.808
34.0559	5.181	SP_I	2.0	n/a	n/a	2.0	3.1310000000000002	Plaus/Plaus_run-01/stereo_PI65.wav	2.0	1	2.1889999999999996
39.243	5.092	SP_S	1.0	n/a	n/a	1.0	2.867	Plaus/Plaus_run-01/stereo_PC13.wav	1.0	1	1.8039999999999998
44.3468	7.355	SP_C	1.0	n/a	n/a	1.0	0.512	Plaus/Plaus_run-01/CoM06l.wav	1.0	1	1.262
51.7032	7.47	SP_I	2.0	n/a	n/a	2.0	4.072	Plaus/Plaus_run-01/stereo_PI90.wav	2.0	1	1.9010000000000002
59.1764	7.399	SP_S	1.0	n/a	n/a	1.0	3.498	Plaus/Plaus_run-01/stereo_PC35.wav	1.0	1	1.2310000000000003
66.5818	5.685	SP_S	1.0	n/a	n/a	1.0	2.325	Plaus/Plaus_run-01/stereo_PC47.wav	1.0	1	1.316
72.2704	5.669	SP_W	1.0	n/a	n/a	1.0	2.697	Plaus/Plaus_run-01/stereo_PW19.wav	1.0	1	1.691
77.9423	7.9	SP_C	1.0	n/a	n/a	1.0	0.16899999999999998	Plaus/Plaus_run-01/CoM03l.wav	1.0	1	0.919
85.8483	5.145	SP_I	2.0	n/a	n/a	1.0	2.9210000000000003	Plaus/Plaus_run-01/stereo_PI09.wav	1.0	0	1.9130000000000005
91.0021	6.9170000000000025	SP_W	1.0	n/a	n/a	2.0	4.503	Plaus/Plaus_run-01/stereo_PW30.wav	2.0	0	2.383
97.9243	5.738	SP_S	1.0	n/a	n/a	1.0	2.742	Plaus/Plaus_run-01/stereo_PC14.wav	1.0	1	1.571
103.6662	6.276	SP_W	1.0	n/a	n/a	1.0	2.656	Plaus/Plaus_run-01/stereo_PW50.wav	1.0	1	1.834
109.954	5.49	SP_C	1.0	n/a	n/a	1.0	0.898	Plaus/Plaus_run-01/CoM03d.wav	1.0	1	1.6480000000000001
115.458	5.7	SP_I	2.0	n/a	n/a	1.0	3.6430000000000002	Plaus/Plaus_run-01/stereo_PI67.wav	1.0	0	2.752
121.1625	7.237	SP_S	1.0	n/a	n/a	1.0	4.034	Plaus/Plaus_run-01/stereo_PC68.wav	1.0	1	2.0679999999999996
128.4022	6.49	SP_C	1.0	n/a	n/a	1.0	0.264	Plaus/Plaus_run-01/CoM03b.wav	1.0	1	1.014
134.9065	6.25	SP_W	1.0	n/a	n/a	1.0	3.78	Plaus/Plaus_run-01/stereo_PW61.wav	1.0	1	2.8
141.161	6.952999999999999	SP_I	2.0	n/a	n/a	2.0	3.653	Plaus/Plaus_run-01/stereo_PI32.wav	2.0	1	1.488
148.1173	7.085	SP_C	1.0	n/a	n/a	1.0	0.293	Plaus/Plaus_run-01/CoM02e.wav	1.0	1	1.043
155.2068	6.3610000000000015	SP_S	1.0	n/a	n/a	1.0	3.798	Plaus/Plaus_run-01/stereo_PC24.wav	1.0	1	1.54
161.5781	5.1110000000000015	SP_W	1.0	n/a	n/a	1.0	2.443	Plaus/Plaus_run-01/stereo_PW53.wav	1.0	1	1.4290000000000003
166.6985	6.2860000000000005	SP_I	2.0	n/a	n/a	2.0	4.087	Plaus/Plaus_run-01/stereo_PI42.wav	2.0	1	1.891
172.9876	6.577000000000001	SP_S	1.0	n/a	n/a	1.0	3.525	Plaus/Plaus_run-01/stereo_PC57.wav	1.0	1	2.33
179.5757	5.273	SP_W	1.0	n/a	n/a	n/a	n/a	Plaus/Plaus_run-01/stereo_PW18.wav	n/a	0	n/a
184.8629	5.77	SP_C	1.0	n/a	n/a	1.0	1.755	Plaus/Plaus_run-01/CoM09b.wav	1.0	1	2.505
190.6348	6.731	SP_S	1.0	n/a	n/a	1.0	5.553999999999999	Plaus/Plaus_run-01/stereo_PC26.wav	1.0	1	3.4539999999999984
197.3731	7.212999999999999	SP_I	2.0	n/a	n/a	2.0	3.7060000000000004	Plaus/Plaus_run-01/stereo_PI33.wav	2.0	1	1.7229999999999999
204.595	5.181	SP_S	1.0	n/a	n/a	1.0	2.15	Plaus/Plaus_run-01/stereo_PC01.wav	1.0	1	1.209
209.7821	6.238	SP_S	1.0	n/a	n/a	1.0	3.051	Plaus/Plaus_run-01/stereo_PC36.wav	1.0	1	1.005
216.0211	7.73	SP_C	1.0	n/a	n/a	1.0	0.32299999999999995	Plaus/Plaus_run-01/CoM10e.wav	1.0	1	1.073
223.7601	6.843	SP_I	2.0	n/a	n/a	1.0	3.975	Plaus/Plaus_run-01/stereo_PI45.wav	1.0	0	1.8480000000000003
230.615	6.101	SP_W	1.0	n/a	n/a	1.0	3.051	Plaus/Plaus_run-01/stereo_PW28.wav	1.0	1	1.1189999999999998
236.7206	7.419	SP_W	1.0	n/a	n/a	1.0	3.18	Plaus/Plaus_run-01/stereo_PW86.wav	1.0	1	1.1440000000000006
244.1438	6.54	SP_C	1.0	n/a	n/a	1.0	0.08900000000000001	Plaus/Plaus_run-01/CoM05e.wav	1.0	1	0.839
250.6981	6.247000000000001	SP_I	2.0	n/a	n/a	1.0	2.9810000000000003	Plaus/Plaus_run-01/stereo_PI12.wav	1.0	0	2.1100000000000003
