onset	duration	trial_type	correct	window1_response	window1_RT	window2_response	window2_RT	stim_file	calculated_response	calculated_accuracy	calculated_RT
1.0907	4.2010000000000005	S_U	2.0	n/a	n/a	2.0	1.278	Sem/Sem_run-02/stereo_1SU33A0.wav	2.0	1	1.028
5.2947	3.486	S_U	2.0	n/a	n/a	2.0	1.555	Sem/Sem_run-02/stereo_2SU85A0.wav	2.0	1	1.305
8.7817	3.8539999999999996	S_H	1.0	n/a	n/a	1.0	1.7180000000000002	Sem/Sem_run-02/stereo_2SH50A0.wav	1.0	1	1.4680000000000002
12.6503	3.454	S_C	1.0	n/a	n/a	1.0	0.292	Sem/Sem_run-02/ContS08.wav	1.0	1	1.042
16.1195	4.33	S_H	1.0	n/a	n/a	1.0	2.031	Sem/Sem_run-02/stereo_1SH10A0.wav	1.0	1	1.7810000000000001
20.4559	3.872	S_L	1.0	n/a	n/a	n/a	n/a	Sem/Sem_run-02/stereo_2SL61A0.wav	1.0	1	3.0620000000000003
24.3421	3.885	S_L	1.0	1.0	0.19	1.0	2.1630000000000003	Sem/Sem_run-02/stereo_1SL23A0.wav	1.0	1	1.9130000000000003
28.2293	4.2	S_U	2.0	n/a	n/a	n/a	n/a	Sem/Sem_run-02/stereo_1SU42A0.wav	1.0	0	3.534
32.4326	3.321	S_L	1.0	1.0	0.33399999999999996	1.0	1.653	Sem/Sem_run-02/stereo_1SL16A0.wav	1.0	1	1.403
35.7684	3.59	S_C	1.0	n/a	n/a	1.0	0.075	Sem/Sem_run-02/ContS26.wav	1.0	1	0.825
39.3711	4.4	S_H	1.0	n/a	n/a	1.0	1.464	Sem/Sem_run-02/stereo_2SH60A0.wav	1.0	1	1.214
43.7745	4.311	S_L	1.0	n/a	n/a	1.0	2.338	Sem/Sem_run-02/stereo_2SL75A0.wav	1.0	1	2.088
48.0943	3.912	S_H	1.0	n/a	n/a	1.0	1.755	Sem/Sem_run-02/stereo_2SH59A0.wav	1.0	1	1.505
52.0138	4.4	S_U	2.0	n/a	n/a	2.0	2.623	Sem/Sem_run-02/stereo_2SU84A0.wav	2.0	1	2.373
56.4171	3.4210000000000003	S_U	2.0	n/a	n/a	n/a	n/a	Sem/Sem_run-02/stereo_1SU43A0.wav	n/a	0	n/a
59.8529	3.8539999999999996	S_C	1.0	1.0	0.659	1.0	1.785	Sem/Sem_run-02/ContS02.wav	1.0	1	0.659
63.7217	4.37	S_L	1.0	n/a	n/a	1.0	2.635	Sem/Sem_run-02/stereo_1SL19A0.wav	1.0	1	2.385
68.0927	3.862	S_L	1.0	n/a	n/a	1.0	1.7480000000000002	Sem/Sem_run-02/stereo_1SL18A0.wav	1.0	1	1.4980000000000002
71.9622	4.462	S_C	1.0	n/a	n/a	1.0	0.201	Sem/Sem_run-02/ContS22.wav	1.0	1	0.9510000000000001
76.4321	3.406	S_L	1.0	n/a	n/a	n/a	n/a	Sem/Sem_run-02/stereo_1SL21A0.wav	1.0	1	2.9000000000000004
79.8515	3.355	S_U	2.0	1.0	0.494	n/a	n/a	Sem/Sem_run-02/stereo_1SU36A0.wav	n/a	0	n/a
83.2206	4.324	S_C	1.0	1.0	0.445	1.0	0.992	Sem/Sem_run-02/ContS04.wav	1.0	1	0.445
87.5571	4.253	S_L	1.0	n/a	n/a	1.0	2.259	Sem/Sem_run-02/stereo_1SL24A0.wav	1.0	1	2.009
91.8112	3.839	S_L	1.0	n/a	n/a	1.0	2.335	Sem/Sem_run-02/stereo_2SL70A0.wav	1.0	1	2.085
95.664	4.395	S_C	1.0	n/a	n/a	1.0	1.5730000000000002	Sem/Sem_run-02/ContS14.wav	1.0	1	2.3230000000000004
100.0673	3.8739999999999997	S_H	1.0	n/a	n/a	n/a	n/a	Sem/Sem_run-02/stereo_1SH09A0.wav	n/a	0	n/a
103.9534	3.75	S_U	2.0	n/a	n/a	n/a	n/a	Sem/Sem_run-02/stereo_1SU32A0.wav	n/a	0	n/a
107.7063	3.641	S_C	1.0	1.0	0.268	n/a	n/a	Sem/Sem_run-02/ContS34.wav	1.0	1	0.268
111.359	3.338	S_U	2.0	n/a	n/a	1.0	1.389	Sem/Sem_run-02/stereo_1SU31A0.wav	1.0	0	1.139
114.7114	3.45	S_L	1.0	n/a	n/a	1.0	2.0180000000000002	Sem/Sem_run-02/stereo_2SL68A0.wav	1.0	1	1.7679999999999998
118.164	3.8510000000000004	S_H	1.0	n/a	n/a	1.0	0.971	Sem/Sem_run-02/stereo_1SH14A0.wav	1.0	1	0.721
122.0178	3.459	S_H	1.0	n/a	n/a	1.0	2.076	Sem/Sem_run-02/stereo_1SH01A0.wav	1.0	1	1.826
125.4869	3.512	S_C	1.0	n/a	n/a	1.0	0.555	Sem/Sem_run-02/ContS16.wav	1.0	1	1.3050000000000002
129.0062	3.489	S_H	1.0	n/a	n/a	n/a	n/a	Sem/Sem_run-02/stereo_1SH12A0.wav	n/a	0	n/a
132.5087	3.8489999999999998	S_U	2.0	n/a	n/a	n/a	n/a	Sem/Sem_run-02/stereo_2SU86A0.wav	n/a	0	n/a
136.3616	3.46	S_L	1.0	n/a	n/a	n/a	n/a	Sem/Sem_run-02/stereo_1SL28A0.wav	n/a	0	n/a
139.8308	4.53	S_C	1.0	n/a	n/a	n/a	n/a	Sem/Sem_run-02/ContS32.wav	n/a	0	n/a
144.3674	4.351	S_H	1.0	n/a	n/a	n/a	n/a	Sem/Sem_run-02/stereo_2SH52A0.wav	n/a	0	n/a
148.7216	3.48	S_H	1.0	n/a	n/a	1.0	1.8330000000000002	Sem/Sem_run-02/stereo_2SH47A0.wav	1.0	1	1.583
152.2075	3.3	S_H	1.0	n/a	n/a	1.0	1.12	Sem/Sem_run-02/stereo_2SH53A0.wav	1.0	1	0.8700000000000001
155.5099	3.847	S_U	2.0	n/a	n/a	1.0	2.537	Sem/Sem_run-02/stereo_1SU39A0.wav	1.0	0	2.287
159.3627	3.923	S_C	1.0	n/a	n/a	1.0	0.358	Sem/Sem_run-02/ContS10.wav	1.0	1	1.108
163.2989	3.7510000000000003	S_U	2.0	n/a	n/a	1.0	1.5019999999999998	Sem/Sem_run-02/stereo_2SU80A0.wav	1.0	0	1.2519999999999998
167.0527	4.2	S_L	1.0	n/a	n/a	n/a	n/a	Sem/Sem_run-02/stereo_2SL66A0.wav	n/a	0	n/a
171.2559	3.99	S_C	1.0	n/a	n/a	2.0	0.237	Sem/Sem_run-02/ContS20.wav	2.0	0	0.987
175.2588	4.041	S_C	1.0	n/a	n/a	1.0	0.358	Sem/Sem_run-02/ContS28.wav	1.0	1	1.108
179.3117	4.2	S_U	2.0	n/a	n/a	n/a	n/a	Sem/Sem_run-02/stereo_2SU89A0.wav	n/a	0	n/a
183.5149	4.368	S_H	1.0	n/a	n/a	1.0	1.896	Sem/Sem_run-02/stereo_2SH46A0.wav	1.0	1	1.646
