onset	duration	trial_type	correct	window1_response	window1_RT	window2_response	window2_RT	stim_file	calculated_response	calculated_accuracy	calculated_RT
1.0924	3.5	P_R	1.0	n/a	n/a	1.0	1.59	Phon/Phon_run-02/stereo_PR20.wav	1.0	1	1.34
4.595	4.235	P_O	1.0	n/a	n/a	1.0	1.422	Phon/Phon_run-02/PC034.wav	1.0	1	1.172
8.8325	3.375	P_R	1.0	n/a	n/a	1.0	1.294	Phon/Phon_run-02/stereo_PR13.wav	1.0	1	1.044
12.2183	3.474	P_C	1.0	n/a	n/a	1.0	0.121	Phon/Phon_run-02/ContS12.wav	1.0	1	0.871
15.7041	3.875	P_U	2.0	n/a	n/a	2.0	2.004	Phon/Phon_run-02/PM025.wav	2.0	1	1.754
19.5903	3.726	P_R	1.0	n/a	n/a	1.0	1.599	Phon/Phon_run-02/stereo_PR22.wav	1.0	1	1.349
23.3263	3.451	P_O	1.0	n/a	n/a	1.0	0.9570000000000001	Phon/Phon_run-02/PC014.wav	1.0	1	0.707
26.7799	3.779	P_C	1.0	1.0	0.732	n/a	n/a	Phon/Phon_run-02/ContS02.wav	1.0	1	0.732
30.566	3.821	P_U	2.0	n/a	n/a	2.0	1.985	Phon/Phon_run-02/stereo_PU18.wav	2.0	1	1.735
34.402	3.49	P_U	2.0	n/a	n/a	2.0	1.367	Phon/Phon_run-02/stereo_PU12.wav	2.0	1	1.117
37.9046	4.38	P_C	1.0	1.0	0.6970000000000001	n/a	n/a	Phon/Phon_run-02/ContS32.wav	1.0	1	0.6970000000000001
42.291000000000004	4.0969999999999995	P_R	1.0	n/a	n/a	1.0	2.076	Phon/Phon_run-02/stereo_PR16.wav	1.0	1	1.826
46.394	3.5	P_O	1.0	n/a	n/a	1.0	2.289	Phon/Phon_run-02/PC022.wav	1.0	1	2.039
49.8966	4.0760000000000005	P_R	1.0	n/a	n/a	1.0	1.433	Phon/Phon_run-02/stereo_PR08.wav	1.0	1	1.183
53.983000000000004	3.5	P_O	1.0	n/a	n/a	1.0	1.889	Phon/Phon_run-02/PC028.wav	1.0	1	1.639
57.4856	3.5	P_U	2.0	n/a	n/a	1.0	2.319	Phon/Phon_run-02/stereo_PU27.wav	1.0	0	2.069
60.9881	3.819	P_C	1.0	n/a	n/a	1.0	0.509	Phon/Phon_run-02/ContS06.wav	1.0	1	1.259
64.8086	4.25	P_O	1.0	n/a	n/a	1.0	2.334	Phon/Phon_run-02/PC031.wav	1.0	1	2.084
69.062	3.662	P_C	1.0	n/a	n/a	1.0	0.022000000000000002	Phon/Phon_run-02/ContS36.wav	1.0	1	0.772
72.7312	3.823	P_O	1.0	n/a	n/a	1.0	1.936	Phon/Phon_run-02/PC023.wav	1.0	1	1.686
76.5674	4.323	P_C	1.0	n/a	n/a	1.0	0.217	Phon/Phon_run-02/ContS24.wav	1.0	1	0.967
80.9038	3.865	P_U	2.0	n/a	n/a	2.0	2.42	Phon/Phon_run-02/PM004.wav	2.0	1	2.17
84.7733	3.875	P_O	1.0	n/a	n/a	1.0	2.0180000000000002	Phon/Phon_run-02/PC007.wav	1.0	1	1.7679999999999998
88.6594	4.25	P_U	2.0	n/a	n/a	2.0	2.822	Phon/Phon_run-02/PM011.wav	2.0	1	2.572
92.9126	4.362	P_C	1.0	n/a	n/a	1.0	0.636	Phon/Phon_run-02/ContS30.wav	1.0	1	1.3860000000000001
97.2825	3.875	P_O	1.0	n/a	n/a	1.0	2.105	Phon/Phon_run-02/PC030.wav	1.0	1	1.855
101.1687	3.3360000000000003	P_R	1.0	n/a	n/a	1.0	1.402	Phon/Phon_run-02/stereo_PR05.wav	1.0	1	1.152
104.5077	4.113	P_U	2.0	n/a	n/a	2.0	1.7919999999999998	Phon/Phon_run-02/stereo_PU01.wav	2.0	1	1.5419999999999998
108.6273	4.1739999999999995	P_U	2.0	n/a	n/a	1.0	1.6380000000000001	Phon/Phon_run-02/PM029.wav	1.0	0	1.388
112.8137	3.4539999999999997	P_C	1.0	n/a	n/a	n/a	n/a	Phon/Phon_run-02/ContS08.wav	n/a	0	n/a
116.2828	3.446	P_R	1.0	n/a	n/a	1.0	1.273	Phon/Phon_run-02/stereo_PR30.wav	1.0	1	1.023
119.7352	3.85	P_R	1.0	n/a	n/a	2.0	1.3980000000000001	Phon/Phon_run-02/stereo_PR07.wav	2.0	0	1.148
123.588	3.438	P_U	2.0	n/a	n/a	n/a	n/a	Phon/Phon_run-02/stereo_PU02.wav	n/a	0	n/a
127.0406	3.915	P_C	1.0	n/a	n/a	1.0	0.596	Phon/Phon_run-02/ContS20.wav	1.0	1	1.346
130.9601	3.487	P_U	2.0	n/a	n/a	n/a	n/a	Phon/Phon_run-02/PM021.wav	n/a	0	n/a
134.46200000000002	3.965	P_C	1.0	n/a	n/a	1.0	0.325	Phon/Phon_run-02/ContS26.wav	1.0	1	1.075
138.4315	3.792	P_R	1.0	n/a	n/a	2.0	1.806	Phon/Phon_run-02/stereo_PR31.wav	2.0	0	1.556
142.2343	4.135	P_O	1.0	n/a	n/a	1.0	2.0069999999999997	Phon/Phon_run-02/PC024.wav	1.0	1	1.7570000000000001
146.3717	3.875	P_U	2.0	n/a	n/a	2.0	2.3569999999999998	Phon/Phon_run-02/PM010.wav	2.0	1	2.107
150.2579	3.875	P_O	1.0	n/a	n/a	1.0	2.2359999999999998	Phon/Phon_run-02/PC015.wav	1.0	1	1.9860000000000002
154.144	4.245	P_C	1.0	n/a	n/a	1.0	0.628	Phon/Phon_run-02/ContS14.wav	1.0	1	1.3780000000000001
158.3971	3.854	P_R	1.0	n/a	n/a	2.0	1.946	Phon/Phon_run-02/stereo_PR14.wav	2.0	0	1.696
162.2662	4.239	P_O	1.0	n/a	n/a	1.0	2.1590000000000003	Phon/Phon_run-02/PC008.wav	1.0	1	1.9090000000000003
166.5192	4.25	P_U	2.0	n/a	n/a	2.0	1.6440000000000001	Phon/Phon_run-02/stereo_PU11.wav	2.0	1	1.394
170.7726	3.523	P_C	1.0	n/a	n/a	1.0	0.2	Phon/Phon_run-02/ContS18.wav	1.0	1	0.95
174.3085	3.429	P_O	1.0	n/a	n/a	1.0	2.129	Phon/Phon_run-02/PC006.wav	1.0	1	1.879
177.7443	4.18	P_R	1.0	n/a	n/a	1.0	1.47	Phon/Phon_run-02/stereo_PR32.wav	1.0	1	1.22
181.9307	4.104	P_R	1.0	n/a	n/a	1.0	1.926	Phon/Phon_run-02/stereo_PR24.wav	1.0	1	1.676
