onset	duration	trial_type	correct	window1_response	window1_RT	window2_response	window2_RT	stim_file	calculated_response	calculated_accuracy	calculated_RT
1.084	6.895	G_F	2.0	n/a	n/a	2.0	2.891	Gram/Gram_run-01/stereo_2MF57U2.wav	2.0	1	3.641
7.989	7.175	G_F	2.0	n/a	n/a	2.0	3.904	Gram/Gram_run-01/stereo_1MF15U3.wav	2.0	1	4.654
15.177999999999999	6.5070000000000014	G_G	1.0	n/a	n/a	1.0	2.9339999999999997	Gram/Gram_run-01/stereo_1MF11G2.wav	1.0	1	1.754
21.7	6.505	G_C	1.0	n/a	n/a	1.0	0.43	Gram/Gram_run-01/CoM09d.wav	1.0	1	1.18
28.205	6.9479999999999995	G_F	2.0	n/a	n/a	2.0	4.204	Gram/Gram_run-01/stereo_2MF68U4.wav	2.0	1	3.4779999999999998
35.16	5.541	G_P	2.0	n/a	n/a	1.0	3.64	Gram/Gram_run-01/stereo_1MP37U3.wav	1.0	0	2.605
40.714	5.9479999999999995	G_G	1.0	n/a	n/a	2.0	0.9	Gram/Gram_run-01/stereo_2MF50G1.wav	n/a	0	n/a
46.669	6.013	G_F	2.0	n/a	n/a	1.0	4.414	Gram/Gram_run-01/stereo_1MF05U1.wav	1.0	0	3.812
52.69	7.87	G_C	1.0	n/a	n/a	1.0	1.929	Gram/Gram_run-01/CoM01l.wav	1.0	1	2.6790000000000003
60.563	6.4979999999999976	G_G	1.0	n/a	n/a	1.0	4.438	Gram/Gram_run-01/stereo_1MF23G4.wav	1.0	1	2.2569999999999997
67.068	6.184	G_F	2.0	n/a	n/a	1.0	3.2119999999999997	Gram/Gram_run-01/stereo_2MF55U2.wav	1.0	0	3.962
73.256	6.83	G_C	1.0	n/a	n/a	1.0	0.379	Gram/Gram_run-01/CoM10l.wav	1.0	1	1.129
80.094	7.505	G_G	1.0	n/a	n/a	1.0	6.108	Gram/Gram_run-01/stereo_2MP96G4.wav	1.0	1	3.713
87.6	7.1370000000000005	G_G	1.0	n/a	n/a	1.0	4.8660000000000005	Gram/Gram_run-01/stereo_1MP47G4.wav	1.0	1	2.399000000000001
94.73899999999999	6.694	G_F	2.0	n/a	n/a	2.0	2.386	Gram/Gram_run-01/stereo_2MF61U3.wav	2.0	1	3.136
101.444	5.39	G_C	1.0	n/a	n/a	1.0	1.084	Gram/Gram_run-01/CoM01d.wav	1.0	1	1.834
106.848	6.5760000000000005	G_G	1.0	n/a	n/a	1.0	3.917	Gram/Gram_run-01/stereo_1MP35G2.wav	1.0	1	2.913
113.43700000000001	5.3389999999999995	G_F	2.0	n/a	n/a	2.0	3.7560000000000002	Gram/Gram_run-01/stereo_2MF69U4.wav	2.0	1	3.0180000000000002
118.791	7.94	G_C	1.0	n/a	n/a	1.0	0.489	Gram/Gram_run-01/CoM08l.wav	1.0	1	1.2389999999999999
126.74700000000001	6.006	G_P	2.0	n/a	n/a	n/a	n/a	Gram/Gram_run-01/stereo_1MP26U1.wav	n/a	0	n/a
132.768	8.422	G_F	2.0	n/a	n/a	2.0	3.262	Gram/Gram_run-01/stereo_1MF06U1.wav	2.0	1	2.667
141.191	7.885	G_P	2.0	n/a	n/a	2.0	3.554	Gram/Gram_run-01/stereo_2MP81U2.wav	2.0	1	2.6689999999999996
149.08100000000005	6.127000000000002	G_G	1.0	n/a	n/a	1.0	3.0639999999999996	Gram/Gram_run-01/stereo_2MP83G2.wav	1.0	1	2.0040000000000004
155.219	5.765	G_C	1.0	n/a	n/a	1.0	0.248	Gram/Gram_run-01/CoM02b.wav	1.0	1	0.998
160.99	6.706	G_P	2.0	n/a	n/a	2.0	4.678	Gram/Gram_run-01/stereo_2MP93U4.wav	2.0	1	2.2780000000000005
167.71200000000005	6.61	G_P	2.0	n/a	n/a	n/a	n/a	Gram/Gram_run-01/stereo_1MP28U1.wav	n/a	0	n/a
174.333	6.63	G_C	1.0	n/a	n/a	1.0	0.18	Gram/Gram_run-01/CoM04b.wav	1.0	1	0.9299999999999999
180.972	5.665	G_P	2.0	n/a	n/a	2.0	4.415	Gram/Gram_run-01/stereo_1MP27U1.wav	2.0	1	2.4130000000000003
186.643	7.55	G_G	1.0	n/a	n/a	1.0	3.575	Gram/Gram_run-01/stereo_2MP77G1.wav	1.0	1	1.476
194.199	6.51	G_C	1.0	n/a	n/a	1.0	0.298	Gram/Gram_run-01/CoM03e.wav	1.0	1	1.048
200.72	6.98	G_P	2.0	n/a	n/a	2.0	4.093999999999999	Gram/Gram_run-01/stereo_2MP92U4.wav	2.0	1	1.7449999999999983
207.709	7.047999999999999	G_G	1.0	n/a	n/a	1.0	2.588	Gram/Gram_run-01/stereo_1MF12G2.wav	1.0	1	1.554
214.764	5.574	G_F	2.0	n/a	n/a	1.0	4.195	Gram/Gram_run-01/stereo_1MF04U1.wav	1.0	0	3.607
220.352	5.67	G_C	1.0	n/a	n/a	1.0	0.7809999999999999	Gram/Gram_run-01/CoM07d.wav	1.0	1	1.531
226.023	6.6160000000000005	G_P	2.0	n/a	n/a	2.0	2.685	Gram/Gram_run-01/stereo_1MP39U3.wav	2.0	1	1.681
232.645	5.695	G_P	2.0	n/a	n/a	1.0	2.8710000000000004	Gram/Gram_run-01/stereo_2MP82U2.wav	1.0	0	1.9500000000000006
238.34900000000002	6.627000000000002	G_F	2.0	n/a	n/a	1.0	3.0810000000000004	Gram/Gram_run-01/stereo_1MF13U3.wav	1.0	0	3.8310000000000004
244.988	7.145	G_C	1.0	n/a	n/a	1.0	0.35600000000000004	Gram/Gram_run-01/CoM08e.wav	1.0	1	1.106
252.143	6.805	G_G	1.0	n/a	n/a	2.0	3.725	Gram/Gram_run-01/stereo_1MP41G3.wav	2.0	0	2.419
258.948	7.519	G_P	2.0	n/a	n/a	2.0	3.185	Gram/Gram_run-01/stereo_1MP38U3.wav	2.0	1	1.946
