onset	duration	trial_type	correct	window1_response	window1_RT	window2_response	window2_RT	stim_file	calculated_response	calculated_accuracy	calculated_RT
1.084	3.4539999999999997	P_R	1.0	n/a	n/a	1.0	1.679	Phon/Phon_run-01/stereo_PR01.wav	1.0	1	1.429
4.5539999999999985	3.767	P_O	1.0	n/a	n/a	1.0	1.1179999999999999	Phon/Phon_run-01/PC018.wav	1.0	1	0.8680000000000001
8.323	3.391	P_O	1.0	n/a	n/a	2.0	1.6269999999999998	Phon/Phon_run-01/PC009.wav	2.0	0	1.3769999999999998
11.725999999999999	4.374	P_C	1.0	n/a	n/a	1.0	1.939	Phon/Phon_run-01/ContS11.wav	1.0	1	2.689
16.113	3.345	P_U	2.0	n/a	n/a	2.0	1.449	Phon/Phon_run-01/PM002.wav	2.0	1	1.199
19.465	4.4510000000000005	P_C	1.0	n/a	n/a	1.0	1.695	Phon/Phon_run-01/ContS21.wav	1.0	1	2.4450000000000003
23.919	4.382	P_O	1.0	n/a	n/a	1.0	1.4	Phon/Phon_run-01/PC005.wav	1.0	1	1.15
28.30599999999999	3.3	P_U	2.0	n/a	n/a	2.0	1.435	Phon/Phon_run-01/stereo_PU26.wav	2.0	1	1.185
31.608	4.324	P_C	1.0	n/a	n/a	1.0	1.079	Phon/Phon_run-01/ContS03.wav	1.0	1	1.829
35.945	4.378	P_R	1.0	n/a	n/a	1.0	1.91	Phon/Phon_run-01/stereo_PR29.wav	1.0	1	1.66
40.332	3.4810000000000003	P_U	2.0	n/a	n/a	1.0	1.965	Phon/Phon_run-01/PM020.wav	1.0	0	1.715
43.81800000000001	4.393	P_O	1.0	n/a	n/a	2.0	2.835	Phon/Phon_run-01/PC027.wav	2.0	0	2.585
48.222	4.4	P_R	1.0	n/a	n/a	1.0	1.76	Phon/Phon_run-01/stereo_PR11.wav	1.0	1	1.51
52.625	3.884	P_C	1.0	n/a	n/a	n/a	n/a	Phon/Phon_run-01/ContS05.wav	n/a	0	n/a
56.512	3.891	P_U	2.0	n/a	n/a	1.0	2.452	Phon/Phon_run-01/stereo_PU28.wav	1.0	0	2.202
60.415	4.4	P_O	1.0	n/a	n/a	2.0	1.6159999999999999	Phon/Phon_run-01/PC013.wav	2.0	0	1.366
64.818	3.513	P_C	1.0	n/a	n/a	1.0	1.5190000000000001	Phon/Phon_run-01/ContS17.wav	1.0	1	2.269
68.33800000000001	4.4	P_U	2.0	n/a	n/a	2.0	1.565	Phon/Phon_run-01/PM027.wav	2.0	1	1.315
72.741	4.4	P_O	1.0	n/a	n/a	1.0	1.1909999999999998	Phon/Phon_run-01/PC021.wav	1.0	1	0.9409999999999998
77.145	4.496	P_C	1.0	n/a	n/a	1.0	1.2919999999999998	Phon/Phon_run-01/ContS29.wav	1.0	1	2.042
81.648	3.3680000000000003	P_R	1.0	n/a	n/a	n/a	n/a	Phon/Phon_run-01/stereo_PR25.wav	1.0	1	2.7620000000000005
85.01799999999999	3.95	P_O	1.0	1.0	0.39399999999999996	n/a	n/a	Phon/Phon_run-01/PC012.wav	n/a	0	n/a
88.971	3.95	P_U	2.0	n/a	n/a	n/a	n/a	Phon/Phon_run-01/PM003.wav	n/a	0	n/a
92.92399999999999	3.939	P_O	1.0	n/a	n/a	1.0	1.8559999999999999	Phon/Phon_run-01/PC004.wav	1.0	1	1.606
96.87700000000001	3.59	P_C	1.0	n/a	n/a	1.0	1.459	Phon/Phon_run-01/ContS27.wav	1.0	1	2.209
100.48	4.296	P_U	2.0	n/a	n/a	2.0	1.39	Phon/Phon_run-01/stereo_PU21.wav	2.0	1	1.14
104.78399999999999	3.862	P_R	1.0	n/a	n/a	1.0	2.214	Phon/Phon_run-01/stereo_PR26.wav	1.0	1	1.964
108.65299999999999	3.95	P_O	1.0	n/a	n/a	1.0	2.694	Phon/Phon_run-01/PC026.wav	1.0	1	2.444
112.60600000000001	3.5	P_O	1.0	n/a	n/a	1.0	2.082	Phon/Phon_run-01/PC025.wav	1.0	1	1.8319999999999999
116.109	4.013	P_C	1.0	n/a	n/a	1.0	1.34	Phon/Phon_run-01/ContS23.wav	1.0	1	2.09
120.12899999999999	3.792	P_R	1.0	n/a	n/a	2.0	1.421	Phon/Phon_run-01/stereo_PR18.wav	2.0	0	1.171
123.932	3.346	P_U	2.0	n/a	n/a	1.0	1.4	Phon/Phon_run-01/stereo_PU19.wav	1.0	0	1.15
127.285	3.891	P_R	1.0	n/a	n/a	2.0	1.6480000000000001	Phon/Phon_run-01/stereo_PR03.wav	2.0	0	1.398
131.188	3.355	P_O	1.0	n/a	n/a	1.0	1.403	Phon/Phon_run-01/PC003.wav	1.0	1	1.153
134.55700000000002	3.951	P_C	1.0	n/a	n/a	n/a	n/a	Phon/Phon_run-01/ContS15.wav	n/a	0	n/a
138.51	3.74	P_U	2.0	n/a	n/a	2.0	2.588	Phon/Phon_run-01/stereo_PU16.wav	2.0	1	2.338
142.263	3.95	P_R	1.0	n/a	n/a	1.0	1.757	Phon/Phon_run-01/stereo_PR10.wav	1.0	1	1.507
146.217	3.464	P_C	1.0	n/a	n/a	1.0	1.705	Phon/Phon_run-01/ContS09.wav	1.0	1	2.455
149.686	4.275	P_R	1.0	n/a	n/a	1.0	1.976	Phon/Phon_run-01/stereo_PR04.wav	1.0	1	1.726
153.97299999999996	3.95	P_U	2.0	n/a	n/a	1.0	1.538	Phon/Phon_run-01/PM023.wav	1.0	0	1.288
157.92600000000004	4.4	P_U	2.0	n/a	n/a	2.0	2.408	Phon/Phon_run-01/PM001.wav	2.0	1	2.158
162.329	3.665	P_C	1.0	n/a	n/a	n/a	n/a	Phon/Phon_run-01/ContS35.wav	n/a	0	n/a
165.99900000000005	3.463	P_O	1.0	n/a	n/a	1.0	1.514	Phon/Phon_run-01/PC017.wav	1.0	1	1.264
169.468	4.332	P_R	1.0	n/a	n/a	2.0	1.459	Phon/Phon_run-01/stereo_PR19.wav	2.0	0	1.209
173.805	4.083	P_C	1.0	n/a	n/a	1.0	1.056	Phon/Phon_run-01/ContS33.wav	1.0	1	1.806
177.892	3.5	P_R	1.0	n/a	n/a	1.0	1.595	Phon/Phon_run-01/stereo_PR17.wav	1.0	1	1.345
181.395	4.2669999999999995	P_U	2.0	n/a	n/a	1.0	1.9040000000000001	Phon/Phon_run-01/PM009.wav	1.0	0	1.654
185.665	3.4389999999999996	P_R	1.0	n/a	n/a	1.0	1.3630000000000002	Phon/Phon_run-01/stereo_PR09.wav	1.0	1	1.1130000000000002
