onset	duration	trial_type	correct	window1_response	window1_RT	window2_response	window2_RT	stim_file	calculated_response	calculated_accuracy	calculated_RT
1.0924	3.5	P_R	1.0	n/a	n/a	2.0	2.1319999999999997	Phon/Phon_run-02/stereo_PR20.wav	2.0	0	1.8819999999999997
4.595	4.235	P_O	1.0	n/a	n/a	1.0	1.084	Phon/Phon_run-02/PC034.wav	1.0	1	0.8340000000000001
8.8325	3.375	P_R	1.0	n/a	n/a	2.0	1.505	Phon/Phon_run-02/stereo_PR13.wav	2.0	0	1.255
12.2183	3.474	P_C	1.0	n/a	n/a	1.0	0.489	Phon/Phon_run-02/ContS12.wav	1.0	1	1.2389999999999999
15.7041	3.875	P_U	2.0	n/a	n/a	2.0	1.27	Phon/Phon_run-02/PM025.wav	2.0	1	1.02
19.5903	3.726	P_R	1.0	n/a	n/a	1.0	1.5490000000000002	Phon/Phon_run-02/stereo_PR22.wav	1.0	1	1.2990000000000002
23.3263	3.451	P_O	1.0	n/a	n/a	2.0	1.1740000000000002	Phon/Phon_run-02/PC014.wav	2.0	0	0.9240000000000002
26.7799	3.779	P_C	1.0	n/a	n/a	1.0	0.539	Phon/Phon_run-02/ContS02.wav	1.0	1	1.2890000000000001
30.566	3.821	P_U	2.0	n/a	n/a	2.0	1.3	Phon/Phon_run-02/stereo_PU18.wav	2.0	1	1.05
34.402	3.49	P_U	2.0	n/a	n/a	1.0	1.435	Phon/Phon_run-02/stereo_PU12.wav	1.0	0	1.185
37.9046	4.38	P_C	1.0	n/a	n/a	2.0	0.419	Phon/Phon_run-02/ContS32.wav	2.0	0	1.169
42.291000000000004	4.0969999999999995	P_R	1.0	n/a	n/a	1.0	0.917	Phon/Phon_run-02/stereo_PR16.wav	1.0	1	0.667
46.394	3.5	P_O	1.0	n/a	n/a	1.0	1.475	Phon/Phon_run-02/PC022.wav	1.0	1	1.225
49.8966	4.0760000000000005	P_R	1.0	n/a	n/a	2.0	1.4	Phon/Phon_run-02/stereo_PR08.wav	2.0	0	1.15
53.983000000000004	3.5	P_O	1.0	n/a	n/a	1.0	1.824	Phon/Phon_run-02/PC028.wav	1.0	1	1.574
57.4856	3.5	P_U	2.0	n/a	n/a	1.0	1.199	Phon/Phon_run-02/stereo_PU27.wav	1.0	0	0.9490000000000001
60.9881	3.819	P_C	1.0	n/a	n/a	2.0	0.198	Phon/Phon_run-02/ContS06.wav	2.0	0	0.948
64.8086	4.25	P_O	1.0	n/a	n/a	2.0	1.294	Phon/Phon_run-02/PC031.wav	2.0	0	1.044
69.062	3.662	P_C	1.0	n/a	n/a	1.0	0.025	Phon/Phon_run-02/ContS36.wav	1.0	1	0.775
72.7312	3.823	P_O	1.0	n/a	n/a	2.0	1.3769999999999998	Phon/Phon_run-02/PC023.wav	2.0	0	1.1269999999999998
76.5674	4.323	P_C	1.0	n/a	n/a	1.0	0.299	Phon/Phon_run-02/ContS24.wav	1.0	1	1.049
80.9038	3.865	P_U	2.0	n/a	n/a	2.0	1.504	Phon/Phon_run-02/PM004.wav	2.0	1	1.254
84.7733	3.875	P_O	1.0	n/a	n/a	1.0	1.297	Phon/Phon_run-02/PC007.wav	1.0	1	1.047
88.6594	4.25	P_U	2.0	n/a	n/a	2.0	1.837	Phon/Phon_run-02/PM011.wav	2.0	1	1.587
92.9126	4.362	P_C	1.0	n/a	n/a	1.0	0.39799999999999996	Phon/Phon_run-02/ContS30.wav	1.0	1	1.148
97.2825	3.875	P_O	1.0	n/a	n/a	1.0	2.102	Phon/Phon_run-02/PC030.wav	1.0	1	1.8519999999999999
101.1687	3.3360000000000003	P_R	1.0	1.0	0.106	2.0	1.504	Phon/Phon_run-02/stereo_PR05.wav	2.0	0	1.254
104.5077	4.113	P_U	2.0	n/a	n/a	1.0	1.358	Phon/Phon_run-02/stereo_PU01.wav	1.0	0	1.108
108.6273	4.1739999999999995	P_U	2.0	n/a	n/a	1.0	1.4809999999999999	Phon/Phon_run-02/PM029.wav	1.0	0	1.2309999999999999
112.8137	3.4539999999999997	P_C	1.0	n/a	n/a	1.0	0.725	Phon/Phon_run-02/ContS08.wav	1.0	1	1.475
116.2828	3.446	P_R	1.0	n/a	n/a	1.0	1.5930000000000002	Phon/Phon_run-02/stereo_PR30.wav	1.0	1	1.3430000000000002
119.7352	3.85	P_R	1.0	n/a	n/a	2.0	1.123	Phon/Phon_run-02/stereo_PR07.wav	2.0	0	0.873
123.588	3.438	P_U	2.0	n/a	n/a	1.0	1.168	Phon/Phon_run-02/stereo_PU02.wav	1.0	0	0.9179999999999999
127.0406	3.915	P_C	1.0	n/a	n/a	2.0	0.349	Phon/Phon_run-02/ContS20.wav	2.0	0	1.099
130.9601	3.487	P_U	2.0	n/a	n/a	1.0	1.182	Phon/Phon_run-02/PM021.wav	1.0	0	0.9319999999999999
134.46200000000002	3.965	P_C	1.0	n/a	n/a	1.0	0.39799999999999996	Phon/Phon_run-02/ContS26.wav	1.0	1	1.148
138.4315	3.792	P_R	1.0	n/a	n/a	1.0	1.308	Phon/Phon_run-02/stereo_PR31.wav	1.0	1	1.058
142.2343	4.135	P_O	1.0	n/a	n/a	2.0	1.153	Phon/Phon_run-02/PC024.wav	2.0	0	0.903
146.3717	3.875	P_U	2.0	n/a	n/a	1.0	0.9570000000000001	Phon/Phon_run-02/PM010.wav	1.0	0	0.7070000000000001
150.2579	3.875	P_O	1.0	n/a	n/a	2.0	1.3719999999999999	Phon/Phon_run-02/PC015.wav	2.0	0	1.1219999999999999
154.144	4.245	P_C	1.0	n/a	n/a	1.0	0.13699999999999998	Phon/Phon_run-02/ContS14.wav	1.0	1	0.887
158.3971	3.854	P_R	1.0	n/a	n/a	2.0	1.459	Phon/Phon_run-02/stereo_PR14.wav	2.0	0	1.209
162.2662	4.239	P_O	1.0	n/a	n/a	1.0	1.055	Phon/Phon_run-02/PC008.wav	1.0	1	0.8049999999999999
166.5192	4.25	P_U	2.0	n/a	n/a	1.0	1.117	Phon/Phon_run-02/stereo_PU11.wav	1.0	0	0.867
170.7726	3.523	P_C	1.0	n/a	n/a	2.0	0.433	Phon/Phon_run-02/ContS18.wav	2.0	0	1.183
174.3085	3.429	P_O	1.0	n/a	n/a	2.0	1.166	Phon/Phon_run-02/PC006.wav	2.0	0	0.9159999999999999
177.7443	4.18	P_R	1.0	n/a	n/a	1.0	1.207	Phon/Phon_run-02/stereo_PR32.wav	1.0	1	0.9570000000000001
181.9307	4.104	P_R	1.0	n/a	n/a	2.0	1.248	Phon/Phon_run-02/stereo_PR24.wav	2.0	0	0.998
