onset	duration	trial_type	correct	window1_response	window1_RT	window2_response	window2_RT	stim_file	calculated_response	calculated_accuracy	calculated_RT
1.0924	3.5	P_R	1.0	n/a	n/a	1.0	1.446	Phon/Phon_run-02/stereo_PR20.wav	1.0	1	1.196
4.595	4.235	P_O	1.0	n/a	n/a	1.0	1.125	Phon/Phon_run-02/PC034.wav	1.0	1	0.875
8.8325	3.375	P_R	1.0	n/a	n/a	1.0	1.33	Phon/Phon_run-02/stereo_PR13.wav	1.0	1	1.08
12.2183	3.474	P_C	1.0	n/a	n/a	1.0	0.129	Phon/Phon_run-02/ContS12.wav	1.0	1	0.879
15.7041	3.875	P_U	2.0	n/a	n/a	2.0	1.294	Phon/Phon_run-02/PM025.wav	2.0	1	1.044
19.5903	3.726	P_R	1.0	n/a	n/a	1.0	1.9669999999999999	Phon/Phon_run-02/stereo_PR22.wav	1.0	1	1.717
23.3263	3.451	P_O	1.0	n/a	n/a	2.0	1.122	Phon/Phon_run-02/PC014.wav	2.0	0	0.8720000000000001
26.7799	3.779	P_C	1.0	n/a	n/a	1.0	0.09	Phon/Phon_run-02/ContS02.wav	1.0	1	0.84
30.566	3.821	P_U	2.0	n/a	n/a	2.0	1.29	Phon/Phon_run-02/stereo_PU18.wav	2.0	1	1.04
34.402	3.49	P_U	2.0	n/a	n/a	2.0	1.6159999999999999	Phon/Phon_run-02/stereo_PU12.wav	2.0	1	1.366
37.9046	4.38	P_C	1.0	n/a	n/a	1.0	0.002	Phon/Phon_run-02/ContS32.wav	1.0	1	0.752
42.291000000000004	4.0969999999999995	P_R	1.0	n/a	n/a	1.0	1.3030000000000002	Phon/Phon_run-02/stereo_PR16.wav	1.0	1	1.0530000000000002
46.394	3.5	P_O	1.0	n/a	n/a	2.0	1.557	Phon/Phon_run-02/PC022.wav	2.0	0	1.307
49.8966	4.0760000000000005	P_R	1.0	n/a	n/a	1.0	1.379	Phon/Phon_run-02/stereo_PR08.wav	1.0	1	1.129
53.983000000000004	3.5	P_O	1.0	n/a	n/a	2.0	1.577	Phon/Phon_run-02/PC028.wav	2.0	0	1.327
57.4856	3.5	P_U	2.0	n/a	n/a	2.0	2.019	Phon/Phon_run-02/stereo_PU27.wav	2.0	1	1.7690000000000001
60.9881	3.819	P_C	1.0	n/a	n/a	2.0	0.695	Phon/Phon_run-02/ContS06.wav	2.0	0	1.4449999999999998
64.8086	4.25	P_O	1.0	n/a	n/a	2.0	1.909	Phon/Phon_run-02/PC031.wav	2.0	0	1.659
69.062	3.662	P_C	1.0	n/a	n/a	1.0	0.085	Phon/Phon_run-02/ContS36.wav	1.0	1	0.835
72.7312	3.823	P_O	1.0	1.0	0.292	2.0	1.726	Phon/Phon_run-02/PC023.wav	2.0	0	1.476
76.5674	4.323	P_C	1.0	n/a	n/a	1.0	0.965	Phon/Phon_run-02/ContS24.wav	1.0	1	1.7149999999999999
80.9038	3.865	P_U	2.0	n/a	n/a	1.0	0.14300000000000002	Phon/Phon_run-02/PM004.wav	1.0	0	3.168
84.7733	3.875	P_O	1.0	1.0	0.303	2.0	1.358	Phon/Phon_run-02/PC007.wav	2.0	0	1.108
88.6594	4.25	P_U	2.0	n/a	n/a	2.0	1.339	Phon/Phon_run-02/PM011.wav	2.0	1	1.089
92.9126	4.362	P_C	1.0	n/a	n/a	1.0	0.047	Phon/Phon_run-02/ContS30.wav	1.0	1	0.797
97.2825	3.875	P_O	1.0	n/a	n/a	2.0	1.7380000000000002	Phon/Phon_run-02/PC030.wav	2.0	0	1.4880000000000002
101.1687	3.3360000000000003	P_R	1.0	n/a	n/a	1.0	1.3090000000000002	Phon/Phon_run-02/stereo_PR05.wav	1.0	1	1.0590000000000002
104.5077	4.113	P_U	2.0	n/a	n/a	2.0	1.47	Phon/Phon_run-02/stereo_PU01.wav	2.0	1	1.22
108.6273	4.1739999999999995	P_U	2.0	n/a	n/a	2.0	2.149	Phon/Phon_run-02/PM029.wav	2.0	1	1.899
112.8137	3.4539999999999997	P_C	1.0	n/a	n/a	1.0	1.2009999999999998	Phon/Phon_run-02/ContS08.wav	1.0	1	1.9509999999999998
116.2828	3.446	P_R	1.0	n/a	n/a	1.0	1.439	Phon/Phon_run-02/stereo_PR30.wav	1.0	1	1.189
119.7352	3.85	P_R	1.0	n/a	n/a	2.0	2.17	Phon/Phon_run-02/stereo_PR07.wav	2.0	0	1.92
123.588	3.438	P_U	2.0	n/a	n/a	1.0	2.072	Phon/Phon_run-02/stereo_PU02.wav	1.0	0	1.822
127.0406	3.915	P_C	1.0	n/a	n/a	2.0	0.525	Phon/Phon_run-02/ContS20.wav	2.0	0	1.275
130.9601	3.487	P_U	2.0	n/a	n/a	2.0	1.9580000000000002	Phon/Phon_run-02/PM021.wav	2.0	1	1.708
134.46200000000002	3.965	P_C	1.0	n/a	n/a	1.0	0.486	Phon/Phon_run-02/ContS26.wav	1.0	1	1.236
138.4315	3.792	P_R	1.0	n/a	n/a	1.0	1.469	Phon/Phon_run-02/stereo_PR31.wav	1.0	1	1.219
142.2343	4.135	P_O	1.0	n/a	n/a	1.0	1.73	Phon/Phon_run-02/PC024.wav	1.0	1	1.48
146.3717	3.875	P_U	2.0	n/a	n/a	2.0	1.635	Phon/Phon_run-02/PM010.wav	2.0	1	1.385
150.2579	3.875	P_O	1.0	n/a	n/a	1.0	1.4180000000000001	Phon/Phon_run-02/PC015.wav	1.0	1	1.168
154.144	4.245	P_C	1.0	n/a	n/a	1.0	0.44	Phon/Phon_run-02/ContS14.wav	1.0	1	1.19
158.3971	3.854	P_R	1.0	n/a	n/a	n/a	n/a	Phon/Phon_run-02/stereo_PR14.wav	2.0	0	2.8970000000000002
162.2662	4.239	P_O	1.0	2.0	0.043	1.0	1.49	Phon/Phon_run-02/PC008.wav	1.0	1	1.24
166.5192	4.25	P_U	2.0	n/a	n/a	2.0	1.505	Phon/Phon_run-02/stereo_PU11.wav	2.0	1	1.255
170.7726	3.523	P_C	1.0	n/a	n/a	1.0	0.128	Phon/Phon_run-02/ContS18.wav	1.0	1	0.878
174.3085	3.429	P_O	1.0	n/a	n/a	2.0	1.474	Phon/Phon_run-02/PC006.wav	2.0	0	1.224
177.7443	4.18	P_R	1.0	n/a	n/a	1.0	1.48	Phon/Phon_run-02/stereo_PR32.wav	1.0	1	1.23
181.9307	4.104	P_R	1.0	n/a	n/a	1.0	1.4569999999999999	Phon/Phon_run-02/stereo_PR24.wav	1.0	1	1.207
