onset	duration	trial_type	correct	window1_response	window1_RT	window2_response	window2_RT	stim_file	calculated_response	calculated_accuracy	calculated_RT
1.084	6.343	SP_S	1.0	n/a	n/a	1.0	3.761	Plaus/Plaus_run-02/stereo_PC37.wav	1.0	1	1.5999999999999996
7.439	6.345	SP_W	1.0	n/a	n/a	1.0	3.7969999999999997	Plaus/Plaus_run-02/stereo_PW74.wav	1.0	1	1.8280000000000003
13.793	6.095	SP_C	1.0	1.0	0.6859999999999999	1.0	1.695	Plaus/Plaus_run-02/CoM10d.wav	1.0	1	0.6859999999999999
19.898	6.401	SP_I	2.0	n/a	n/a	2.0	3.2439999999999998	Plaus/Plaus_run-02/stereo_PI56.wav	2.0	1	2.377
26.303	6.407	SP_W	1.0	n/a	n/a	1.0	3.832	Plaus/Plaus_run-02/stereo_PW39.wav	1.0	1	1.8049999999999997
32.724000000000004	6.8420000000000005	SP_I	2.0	n/a	n/a	2.0	4.15	Plaus/Plaus_run-02/stereo_PI44.wav	2.0	1	1.9530000000000003
39.58	7.7	SP_C	1.0	1.0	0.7190000000000001	1.0	1.008	Plaus/Plaus_run-02/CoM07e.wav	1.0	1	0.7190000000000001
47.285	5.756	SP_S	1.0	n/a	n/a	1.0	2.362	Plaus/Plaus_run-02/stereo_PC03.wav	1.0	1	1.4200000000000004
53.056999999999995	7.372000000000001	SP_S	1.0	n/a	n/a	1.0	3.762	Plaus/Plaus_run-02/stereo_PC82.wav	1.0	1	1.7069999999999999
60.428999999999995	6.095	SP_C	1.0	1.0	0.733	1.0	1.607	Plaus/Plaus_run-02/CoM04d.wav	1.0	1	0.733
66.533	6.303	SP_I	2.0	n/a	n/a	1.0	3.05	Plaus/Plaus_run-02/stereo_PI23.wav	1.0	0	2.066
72.83800000000002	5.655	SP_I	2.0	n/a	n/a	2.0	3.909	Plaus/Plaus_run-02/stereo_PI22.wav	2.0	1	2.9899999999999998
78.509	6.85	SP_C	1.0	n/a	n/a	1.0	0.818	Plaus/Plaus_run-02/CoM08d.wav	1.0	1	1.568
85.36399999999998	6.9179999999999975	SP_S	1.0	n/a	n/a	1.0	4.996	Plaus/Plaus_run-02/stereo_PC79.wav	1.0	1	2.750000000000001
92.286	5.233	SP_I	2.0	n/a	n/a	2.0	3.515	Plaus/Plaus_run-02/stereo_PI21.wav	2.0	1	2.4750000000000005
97.524	6.385	SP_S	1.0	n/a	n/a	1.0	2.752	Plaus/Plaus_run-02/stereo_PC46.wav	1.0	1	1.7899999999999998
103.912	6.282	SP_W	1.0	n/a	n/a	1.0	3.69	Plaus/Plaus_run-02/stereo_PW64.wav	1.0	1	2.584
110.2	7.69	SP_C	1.0	n/a	n/a	1.0	0.09699999999999999	Plaus/Plaus_run-02/CoM04e.wav	1.0	1	0.847
117.906	6.316	SP_I	2.0	n/a	n/a	2.0	3.864	Plaus/Plaus_run-02/stereo_PI34.wav	2.0	1	1.7069999999999999
124.227	5.47	SP_C	1.0	n/a	n/a	1.0	0.386	Plaus/Plaus_run-02/CoM10b.wav	1.0	1	1.1360000000000001
129.69799999999998	5.636	SP_I	2.0	n/a	n/a	2.0	2.8160000000000003	Plaus/Plaus_run-02/stereo_PI55.wav	2.0	1	1.977
135.336	7.461	SP_W	1.0	n/a	n/a	1.0	3.4539999999999997	Plaus/Plaus_run-02/stereo_PW83.wav	1.0	1	1.4500000000000006
142.808	5.48	SP_C	1.0	n/a	n/a	1.0	0.255	Plaus/Plaus_run-02/CoM01b.wav	1.0	1	1.005
148.295	6.2120000000000015	SP_W	1.0	n/a	n/a	1.0	3.089	Plaus/Plaus_run-02/stereo_PW08.wav	1.0	1	2.2279999999999998
154.517	4.694	SP_W	1.0	n/a	n/a	n/a	n/a	Plaus/Plaus_run-02/stereo_PW07.wav	n/a	0	n/a
159.22	6.197	SP_I	2.0	n/a	n/a	2.0	4.349	Plaus/Plaus_run-02/stereo_PI43.wav	2.0	1	2.2890000000000006
165.425	6.1979999999999995	SP_S	1.0	n/a	n/a	2.0	3.3989999999999996	Plaus/Plaus_run-02/stereo_PC59.wav	2.0	0	2.398
171.63	7.345	SP_C	1.0	n/a	n/a	1.0	0.349	Plaus/Plaus_run-02/CoM05l.wav	1.0	1	1.099
178.985	5.2429999999999986	SP_S	1.0	n/a	n/a	1.0	2.722	Plaus/Plaus_run-02/stereo_PC02.wav	1.0	1	1.843
184.239	6.82	SP_C	1.0	n/a	n/a	1.0	0.29	Plaus/Plaus_run-02/CoM09l.wav	1.0	1	1.04
191.06099999999998	7.183	SP_I	2.0	n/a	n/a	2.0	3.568	Plaus/Plaus_run-02/stereo_PI78.wav	2.0	1	1.65
198.25	6.727	SP_W	1.0	n/a	n/a	1.0	4.301	Plaus/Plaus_run-02/stereo_PW40.wav	1.0	1	2.068
204.988	5.181	SP_S	1.0	n/a	n/a	1.0	3.165	Plaus/Plaus_run-02/stereo_PC60.wav	1.0	1	1.875
210.176	7.135	SP_W	1.0	n/a	n/a	1.0	3.571	Plaus/Plaus_run-02/stereo_PW73.wav	1.0	1	1.6389999999999998
217.31400000000002	6.76	SP_C	1.0	n/a	n/a	1.0	0.053	Plaus/Plaus_run-02/CoM04l.wav	1.0	1	0.803
224.08599999999998	6.682	SP_I	2.0	n/a	n/a	2.0	3.49	Plaus/Plaus_run-02/stereo_PI75.wav	2.0	1	1.4940000000000002
230.775	6.002999999999999	SP_W	1.0	n/a	n/a	1.0	2.85	Plaus/Plaus_run-02/stereo_PW63.wav	1.0	1	1.703
236.77900000000002	5.0760000000000005	SP_W	1.0	n/a	n/a	1.0	2.528	Plaus/Plaus_run-02/stereo_PW05.wav	1.0	1	1.75
241.86599999999999	6.218	SP_S	1.0	n/a	n/a	1.0	3.947	Plaus/Plaus_run-02/stereo_PC69.wav	1.0	1	1.7100000000000004
248.088	6.569	SP_S	1.0	n/a	n/a	1.0	4.093999999999999	Plaus/Plaus_run-02/stereo_PC70.wav	1.0	1	2.2179999999999986
