onset	duration	trial_type	correct	window1_response	window1_RT	window2_response	window2_RT	stim_file	calculated_response	calculated_accuracy	calculated_RT
1.084	7.034	SP_W	1.0	n/a	n/a	1.0	3.666	Plaus/Plaus_run-01/stereo_PW85.wav	1.0	1	1.519
8.123	5.641	SP_I	2.0	n/a	n/a	2.0	2.073	Plaus/Plaus_run-01/stereo_PI11.wav	2.0	1	1.1529999999999998
13.777	6.77	SP_C	1.0	n/a	n/a	1.0	0.348	Plaus/Plaus_run-01/CoM08b.wav	1.0	1	1.098
20.55	7.327000000000001	SP_W	1.0	n/a	n/a	1.0	3.48	Plaus/Plaus_run-01/stereo_PW72.wav	1.0	1	1.5
27.889	6.145	SP_C	1.0	1.0	0.6859999999999999	1.0	1.423	Plaus/Plaus_run-01/CoM05d.wav	1.0	1	0.6859999999999999
34.044000000000004	5.181	SP_I	2.0	n/a	n/a	2.0	2.58	Plaus/Plaus_run-01/stereo_PI65.wav	2.0	1	1.6380000000000001
39.231	5.092	SP_S	1.0	n/a	n/a	2.0	2.33	Plaus/Plaus_run-01/stereo_PC13.wav	2.0	0	1.2670000000000001
44.335	7.355	SP_C	1.0	n/a	n/a	1.0	0.043	Plaus/Plaus_run-01/CoM06l.wav	1.0	1	0.7929999999999999
51.691	7.47	SP_I	2.0	n/a	n/a	2.0	3.902	Plaus/Plaus_run-01/stereo_PI90.wav	2.0	1	1.731
59.164	7.399	SP_S	1.0	n/a	n/a	1.0	3.592	Plaus/Plaus_run-01/stereo_PC35.wav	1.0	1	1.3250000000000002
66.57	5.685	SP_S	1.0	n/a	n/a	2.0	3.1830000000000003	Plaus/Plaus_run-01/stereo_PC47.wav	2.0	0	2.1740000000000004
72.258	5.669	SP_W	1.0	n/a	n/a	1.0	2.74	Plaus/Plaus_run-01/stereo_PW19.wav	1.0	1	1.7340000000000002
77.929	7.9	SP_C	1.0	1.0	0.643	1.0	0.72	Plaus/Plaus_run-01/CoM03l.wav	1.0	1	0.643
85.836	5.145	SP_I	2.0	n/a	n/a	1.0	3.3110000000000004	Plaus/Plaus_run-01/stereo_PI09.wav	1.0	0	2.303000000000001
90.99	6.9170000000000025	SP_W	1.0	n/a	n/a	1.0	3.61	Plaus/Plaus_run-01/stereo_PW30.wav	1.0	1	1.4899999999999998
97.912	5.738	SP_S	1.0	n/a	n/a	1.0	3.017	Plaus/Plaus_run-01/stereo_PC14.wav	1.0	1	1.846
103.65	6.276	SP_W	1.0	n/a	n/a	1.0	2.668	Plaus/Plaus_run-01/stereo_PW50.wav	1.0	1	1.8459999999999999
109.938	5.49	SP_C	1.0	1.0	0.664	1.0	0.818	Plaus/Plaus_run-01/CoM03d.wav	1.0	1	0.664
115.443	5.7	SP_I	2.0	n/a	n/a	2.0	3.0380000000000003	Plaus/Plaus_run-01/stereo_PI67.wav	2.0	1	2.147
121.147	7.237	SP_S	1.0	n/a	n/a	2.0	3.43	Plaus/Plaus_run-01/stereo_PC68.wav	2.0	0	1.464
128.387	6.49	SP_C	1.0	n/a	n/a	1.0	0.348	Plaus/Plaus_run-01/CoM03b.wav	1.0	1	1.098
134.892	6.25	SP_W	1.0	n/a	n/a	1.0	2.728	Plaus/Plaus_run-01/stereo_PW61.wav	1.0	1	1.7480000000000002
141.14700000000005	6.952999999999999	SP_I	2.0	n/a	n/a	2.0	3.731	Plaus/Plaus_run-01/stereo_PI32.wav	2.0	1	1.5660000000000005
148.10299999999995	7.085	SP_C	1.0	n/a	n/a	1.0	0.049	Plaus/Plaus_run-01/CoM02e.wav	1.0	1	0.799
155.192	6.3610000000000015	SP_S	1.0	n/a	n/a	1.0	3.398	Plaus/Plaus_run-01/stereo_PC24.wav	1.0	1	1.14
161.563	5.1110000000000015	SP_W	1.0	n/a	n/a	2.0	3.301	Plaus/Plaus_run-01/stereo_PW53.wav	2.0	0	2.2870000000000004
166.68400000000003	6.2860000000000005	SP_I	2.0	n/a	n/a	2.0	4.1110000000000015	Plaus/Plaus_run-01/stereo_PI42.wav	2.0	1	1.9150000000000016
172.97299999999996	6.577000000000001	SP_S	1.0	n/a	n/a	2.0	3.113	Plaus/Plaus_run-01/stereo_PC57.wav	2.0	0	1.9180000000000001
179.56099999999995	5.273	SP_W	1.0	n/a	n/a	2.0	3.489	Plaus/Plaus_run-01/stereo_PW18.wav	2.0	0	2.322
184.849	5.77	SP_C	1.0	n/a	n/a	1.0	0.297	Plaus/Plaus_run-01/CoM09b.wav	1.0	1	1.047
190.62	6.731	SP_S	1.0	n/a	n/a	1.0	3.711	Plaus/Plaus_run-01/stereo_PC26.wav	1.0	1	1.6110000000000002
197.359	7.212999999999999	SP_I	2.0	n/a	n/a	2.0	3.391	Plaus/Plaus_run-01/stereo_PI33.wav	2.0	1	1.4080000000000001
204.581	5.181	SP_S	1.0	n/a	n/a	1.0	2.377	Plaus/Plaus_run-01/stereo_PC01.wav	1.0	1	1.436
209.769	6.238	SP_S	1.0	n/a	n/a	1.0	3.645	Plaus/Plaus_run-01/stereo_PC36.wav	1.0	1	1.5989999999999998
216.007	7.73	SP_C	1.0	1.0	0.685	1.0	0.423	Plaus/Plaus_run-01/CoM10e.wav	1.0	1	0.685
223.747	6.843	SP_I	2.0	n/a	n/a	2.0	3.768	Plaus/Plaus_run-01/stereo_PI45.wav	2.0	1	1.6410000000000005
230.602	6.101	SP_W	1.0	n/a	n/a	1.0	2.922	Plaus/Plaus_run-01/stereo_PW28.wav	1.0	1	0.9899999999999992
236.707	7.419	SP_W	1.0	n/a	n/a	1.0	3.582	Plaus/Plaus_run-01/stereo_PW86.wav	1.0	1	1.5460000000000005
244.13	6.54	SP_C	1.0	n/a	n/a	1.0	0.01	Plaus/Plaus_run-01/CoM05e.wav	1.0	1	0.76
250.685	6.247000000000001	SP_I	2.0	n/a	n/a	2.0	2.688	Plaus/Plaus_run-01/stereo_PI12.wav	2.0	1	1.817
