onset	duration	trial_type	correct	window1_response	window1_RT	window2_response	window2_RT	stim_file	calculated_response	calculated_accuracy	calculated_RT
1.0964	7.034	SP_W	1.0	n/a	n/a	2.0	3.9	Plaus/Plaus_run-01/stereo_PW85.wav	2.0	0	1.7529999999999997
8.1359	5.641	SP_I	2.0	n/a	n/a	2.0	3.455	Plaus/Plaus_run-01/stereo_PI11.wav	2.0	1	2.535
13.79	6.77	SP_C	1.0	n/a	n/a	1.0	0.142	Plaus/Plaus_run-01/CoM08b.wav	1.0	1	0.892
20.5628	7.327000000000001	SP_W	1.0	n/a	n/a	2.0	3.6519999999999997	Plaus/Plaus_run-01/stereo_PW72.wav	2.0	0	1.6720000000000002
27.9014	6.145	SP_C	1.0	1.0	0.619	n/a	n/a	Plaus/Plaus_run-01/CoM05d.wav	1.0	1	0.619
34.0559	5.181	SP_I	2.0	n/a	n/a	2.0	3.22	Plaus/Plaus_run-01/stereo_PI65.wav	2.0	1	2.278
39.243	5.092	SP_S	1.0	n/a	n/a	2.0	2.611	Plaus/Plaus_run-01/stereo_PC13.wav	2.0	0	1.548
44.3468	7.355	SP_C	1.0	n/a	n/a	1.0	0.22399999999999998	Plaus/Plaus_run-01/CoM06l.wav	1.0	1	0.974
51.7032	7.47	SP_I	2.0	n/a	n/a	1.0	3.9530000000000003	Plaus/Plaus_run-01/stereo_PI90.wav	1.0	0	1.782
59.1764	7.399	SP_S	1.0	n/a	n/a	1.0	3.515	Plaus/Plaus_run-01/stereo_PC35.wav	1.0	1	1.2480000000000002
66.5818	5.685	SP_S	1.0	n/a	n/a	1.0	3.205	Plaus/Plaus_run-01/stereo_PC47.wav	1.0	1	2.1959999999999997
72.2704	5.669	SP_W	1.0	n/a	n/a	2.0	3.045	Plaus/Plaus_run-01/stereo_PW19.wav	2.0	0	2.0389999999999997
77.9423	7.9	SP_C	1.0	1.0	0.39799999999999996	n/a	n/a	Plaus/Plaus_run-01/CoM03l.wav	1.0	1	0.398
85.8483	5.145	SP_I	2.0	n/a	n/a	2.0	3.592	Plaus/Plaus_run-01/stereo_PI09.wav	2.0	1	2.5840000000000005
91.0021	6.9170000000000025	SP_W	1.0	n/a	n/a	2.0	3.385	Plaus/Plaus_run-01/stereo_PW30.wav	2.0	0	1.2649999999999997
97.9243	5.738	SP_S	1.0	n/a	n/a	2.0	2.353	Plaus/Plaus_run-01/stereo_PC14.wav	2.0	0	1.1820000000000002
103.6662	6.276	SP_W	1.0	n/a	n/a	1.0	3.7260000000000004	Plaus/Plaus_run-01/stereo_PW50.wav	1.0	1	2.904
109.954	5.49	SP_C	1.0	n/a	n/a	1.0	0.22399999999999998	Plaus/Plaus_run-01/CoM03d.wav	1.0	1	0.974
115.458	5.7	SP_I	2.0	n/a	n/a	2.0	4.198	Plaus/Plaus_run-01/stereo_PI67.wav	2.0	1	3.3070000000000004
121.1625	7.237	SP_S	1.0	n/a	n/a	1.0	3.98	Plaus/Plaus_run-01/stereo_PC68.wav	1.0	1	2.014
128.4022	6.49	SP_C	1.0	n/a	n/a	1.0	0.109	Plaus/Plaus_run-01/CoM03b.wav	1.0	1	0.859
134.9065	6.25	SP_W	1.0	n/a	n/a	2.0	2.83	Plaus/Plaus_run-01/stereo_PW61.wav	2.0	0	1.85
141.161	6.952999999999999	SP_I	2.0	n/a	n/a	2.0	4.665	Plaus/Plaus_run-01/stereo_PI32.wav	2.0	1	2.5
148.1173	7.085	SP_C	1.0	n/a	n/a	1.0	0.126	Plaus/Plaus_run-01/CoM02e.wav	1.0	1	0.876
155.2068	6.3610000000000015	SP_S	1.0	n/a	n/a	2.0	3.625	Plaus/Plaus_run-01/stereo_PC24.wav	2.0	0	1.367
161.5781	5.1110000000000015	SP_W	1.0	n/a	n/a	1.0	2.722	Plaus/Plaus_run-01/stereo_PW53.wav	1.0	1	1.7080000000000002
166.6985	6.2860000000000005	SP_I	2.0	n/a	n/a	2.0	4.253	Plaus/Plaus_run-01/stereo_PI42.wav	2.0	1	2.0570000000000004
172.9876	6.577000000000001	SP_S	1.0	n/a	n/a	2.0	3.344	Plaus/Plaus_run-01/stereo_PC57.wav	2.0	0	2.149
179.5757	5.273	SP_W	1.0	n/a	n/a	2.0	2.82	Plaus/Plaus_run-01/stereo_PW18.wav	2.0	0	1.6529999999999998
184.8629	5.77	SP_C	1.0	n/a	n/a	1.0	0.013999999999999999	Plaus/Plaus_run-01/CoM09b.wav	1.0	1	0.764
190.6348	6.731	SP_S	1.0	n/a	n/a	2.0	4.289	Plaus/Plaus_run-01/stereo_PC26.wav	2.0	0	2.1889999999999996
197.3731	7.212999999999999	SP_I	2.0	n/a	n/a	1.0	3.8960000000000004	Plaus/Plaus_run-01/stereo_PI33.wav	1.0	0	1.9129999999999998
204.595	5.181	SP_S	1.0	n/a	n/a	n/a	n/a	Plaus/Plaus_run-01/stereo_PC01.wav	n/a	0	n/a
209.7821	6.238	SP_S	1.0	n/a	n/a	1.0	4.59	Plaus/Plaus_run-01/stereo_PC36.wav	1.0	1	2.5439999999999996
216.0211	7.73	SP_C	1.0	n/a	n/a	1.0	0.11599999999999999	Plaus/Plaus_run-01/CoM10e.wav	1.0	1	0.866
223.7601	6.843	SP_I	2.0	n/a	n/a	2.0	3.085	Plaus/Plaus_run-01/stereo_PI45.wav	2.0	1	0.9580000000000002
230.615	6.101	SP_W	1.0	n/a	n/a	2.0	4.752	Plaus/Plaus_run-01/stereo_PW28.wav	2.0	0	2.8199999999999994
236.7206	7.419	SP_W	1.0	n/a	n/a	2.0	4.103	Plaus/Plaus_run-01/stereo_PW86.wav	2.0	0	2.067
244.1438	6.54	SP_C	1.0	1.0	0.6809999999999999	n/a	n/a	Plaus/Plaus_run-01/CoM05e.wav	1.0	1	0.6809999999999999
250.6981	6.247000000000001	SP_I	2.0	n/a	n/a	2.0	2.255	Plaus/Plaus_run-01/stereo_PI12.wav	2.0	1	1.384
