onset	duration	trial_type	correct	window1_response	window1_RT	window2_response	window2_RT	stim_file	calculated_response	calculated_accuracy	calculated_RT
1.0907	4.2010000000000005	S_U	2.0	n/a	n/a	2.0	0.8740000000000001	Sem/Sem_run-02/stereo_1SU33A0.wav	2.0	1	0.6240000000000001
5.2947	3.486	S_U	2.0	n/a	n/a	1.0	1.0659999999999998	Sem/Sem_run-02/stereo_2SU85A0.wav	1.0	0	0.8159999999999998
8.7817	3.8539999999999996	S_H	1.0	n/a	n/a	2.0	1.0	Sem/Sem_run-02/stereo_2SH50A0.wav	2.0	0	0.75
12.6503	3.454	S_C	1.0	n/a	n/a	1.0	1.05	Sem/Sem_run-02/ContS08.wav	1.0	1	1.8
16.1195	4.33	S_H	1.0	n/a	n/a	2.0	1.193	Sem/Sem_run-02/stereo_1SH10A0.wav	2.0	0	0.9430000000000001
20.4559	3.872	S_L	1.0	n/a	n/a	1.0	1.126	Sem/Sem_run-02/stereo_2SL61A0.wav	1.0	1	0.8759999999999999
24.3421	3.885	S_L	1.0	n/a	n/a	2.0	1.192	Sem/Sem_run-02/stereo_1SL23A0.wav	2.0	0	0.942
28.2293	4.2	S_U	2.0	n/a	n/a	1.0	1.484	Sem/Sem_run-02/stereo_1SU42A0.wav	1.0	0	1.234
32.4326	3.321	S_L	1.0	n/a	n/a	2.0	0.889	Sem/Sem_run-02/stereo_1SL16A0.wav	2.0	0	0.639
35.7684	3.59	S_C	1.0	n/a	n/a	1.0	0.943	Sem/Sem_run-02/ContS26.wav	1.0	1	1.693
39.3711	4.4	S_H	1.0	n/a	n/a	2.0	1.548	Sem/Sem_run-02/stereo_2SH60A0.wav	2.0	0	1.298
43.7745	4.311	S_L	1.0	n/a	n/a	2.0	1.585	Sem/Sem_run-02/stereo_2SL75A0.wav	2.0	0	1.335
48.0943	3.912	S_H	1.0	n/a	n/a	1.0	1.3	Sem/Sem_run-02/stereo_2SH59A0.wav	1.0	1	1.05
52.0138	4.4	S_U	2.0	n/a	n/a	2.0	1.078	Sem/Sem_run-02/stereo_2SU84A0.wav	2.0	1	0.8280000000000001
56.4171	3.4210000000000003	S_U	2.0	n/a	n/a	1.0	1.405	Sem/Sem_run-02/stereo_1SU43A0.wav	1.0	0	1.155
59.8529	3.8539999999999996	S_C	1.0	n/a	n/a	1.0	0.363	Sem/Sem_run-02/ContS02.wav	1.0	1	1.113
63.7217	4.37	S_L	1.0	n/a	n/a	2.0	1.187	Sem/Sem_run-02/stereo_1SL19A0.wav	2.0	0	0.937
68.0927	3.862	S_L	1.0	n/a	n/a	2.0	1.5590000000000002	Sem/Sem_run-02/stereo_1SL18A0.wav	2.0	0	1.3090000000000002
71.9622	4.462	S_C	1.0	n/a	n/a	1.0	1.229	Sem/Sem_run-02/ContS22.wav	1.0	1	1.979
76.4321	3.406	S_L	1.0	n/a	n/a	2.0	1.3459999999999999	Sem/Sem_run-02/stereo_1SL21A0.wav	2.0	0	1.096
79.8515	3.355	S_U	2.0	n/a	n/a	1.0	1.03	Sem/Sem_run-02/stereo_1SU36A0.wav	1.0	0	0.78
83.2206	4.324	S_C	1.0	n/a	n/a	1.0	0.511	Sem/Sem_run-02/ContS04.wav	1.0	1	1.2610000000000001
87.5571	4.253	S_L	1.0	n/a	n/a	2.0	1.1740000000000002	Sem/Sem_run-02/stereo_1SL24A0.wav	2.0	0	0.9240000000000002
91.8112	3.839	S_L	1.0	n/a	n/a	1.0	0.897	Sem/Sem_run-02/stereo_2SL70A0.wav	1.0	1	0.647
95.664	4.395	S_C	1.0	n/a	n/a	1.0	0.759	Sem/Sem_run-02/ContS14.wav	1.0	1	1.509
100.0673	3.8739999999999997	S_H	1.0	n/a	n/a	2.0	0.897	Sem/Sem_run-02/stereo_1SH09A0.wav	2.0	0	0.647
103.9534	3.75	S_U	2.0	n/a	n/a	1.0	1.4340000000000002	Sem/Sem_run-02/stereo_1SU32A0.wav	1.0	0	1.1840000000000002
107.7063	3.641	S_C	1.0	n/a	n/a	1.0	1.046	Sem/Sem_run-02/ContS34.wav	1.0	1	1.796
111.359	3.338	S_U	2.0	n/a	n/a	2.0	1.735	Sem/Sem_run-02/stereo_1SU31A0.wav	2.0	1	1.485
114.7114	3.45	S_L	1.0	n/a	n/a	1.0	1.291	Sem/Sem_run-02/stereo_2SL68A0.wav	1.0	1	1.041
118.164	3.8510000000000004	S_H	1.0	n/a	n/a	1.0	1.084	Sem/Sem_run-02/stereo_1SH14A0.wav	1.0	1	0.8340000000000001
122.0178	3.459	S_H	1.0	n/a	n/a	1.0	1.5319999999999998	Sem/Sem_run-02/stereo_1SH01A0.wav	1.0	1	1.2819999999999998
125.4869	3.512	S_C	1.0	n/a	n/a	1.0	0.835	Sem/Sem_run-02/ContS16.wav	1.0	1	1.585
129.0062	3.489	S_H	1.0	n/a	n/a	2.0	0.853	Sem/Sem_run-02/stereo_1SH12A0.wav	2.0	0	0.603
132.5087	3.8489999999999998	S_U	2.0	n/a	n/a	1.0	1.045	Sem/Sem_run-02/stereo_2SU86A0.wav	1.0	0	0.7949999999999999
136.3616	3.46	S_L	1.0	n/a	n/a	1.0	1.143	Sem/Sem_run-02/stereo_1SL28A0.wav	1.0	1	0.893
139.8308	4.53	S_C	1.0	n/a	n/a	1.0	0.131	Sem/Sem_run-02/ContS32.wav	1.0	1	0.881
144.3674	4.351	S_H	1.0	n/a	n/a	2.0	1.139	Sem/Sem_run-02/stereo_2SH52A0.wav	2.0	0	0.889
148.7216	3.48	S_H	1.0	n/a	n/a	1.0	1.011	Sem/Sem_run-02/stereo_2SH47A0.wav	1.0	1	0.7609999999999999
152.2075	3.3	S_H	1.0	n/a	n/a	1.0	1.496	Sem/Sem_run-02/stereo_2SH53A0.wav	1.0	1	1.246
155.5099	3.847	S_U	2.0	n/a	n/a	n/a	n/a	Sem/Sem_run-02/stereo_1SU39A0.wav	n/a	0	n/a
159.3627	3.923	S_C	1.0	1.0	0.647	n/a	n/a	Sem/Sem_run-02/ContS10.wav	1.0	1	0.647
163.2989	3.7510000000000003	S_U	2.0	n/a	n/a	1.0	1.0070000000000001	Sem/Sem_run-02/stereo_2SU80A0.wav	1.0	0	0.7569999999999999
167.0527	4.2	S_L	1.0	n/a	n/a	1.0	1.815	Sem/Sem_run-02/stereo_2SL66A0.wav	1.0	1	1.565
171.2559	3.99	S_C	1.0	n/a	n/a	2.0	0.14	Sem/Sem_run-02/ContS20.wav	2.0	0	0.89
175.2588	4.041	S_C	1.0	n/a	n/a	1.0	1.171	Sem/Sem_run-02/ContS28.wav	1.0	1	1.921
179.3117	4.2	S_U	2.0	n/a	n/a	2.0	1.405	Sem/Sem_run-02/stereo_2SU89A0.wav	2.0	1	1.155
183.5149	4.368	S_H	1.0	n/a	n/a	1.0	0.391	Sem/Sem_run-02/stereo_2SH46A0.wav	1.0	1	0.14100000000000001
