onset	duration	trial_type	correct	window1_response	window1_RT	window2_response	window2_RT	stim_file	calculated_response	calculated_accuracy	calculated_RT
1.0925	3.4539999999999997	P_R	1.0	n/a	n/a	1.0	1.15	Phon/Phon_run-01/stereo_PR01.wav	1.0	1	0.8999999999999999
4.5615	3.767	P_O	1.0	n/a	n/a	1.0	1.01	Phon/Phon_run-01/PC018.wav	1.0	1	0.76
8.3317	3.391	P_O	1.0	n/a	n/a	2.0	1.232	Phon/Phon_run-01/PC009.wav	2.0	0	0.982
11.7341	4.374	P_C	1.0	n/a	n/a	1.0	0.125	Phon/Phon_run-01/ContS11.wav	1.0	1	0.875
16.1207	3.345	P_U	2.0	n/a	n/a	2.0	1.574	Phon/Phon_run-01/PM002.wav	2.0	1	1.324
19.473	4.4510000000000005	P_C	1.0	n/a	n/a	1.0	0.38	Phon/Phon_run-01/ContS21.wav	1.0	1	1.13
23.9275	4.382	P_O	1.0	n/a	n/a	1.0	1.554	Phon/Phon_run-01/PC005.wav	1.0	1	1.304
28.314	3.3	P_U	2.0	n/a	n/a	2.0	1.423	Phon/Phon_run-01/stereo_PU26.wav	2.0	1	1.173
31.6165	4.324	P_C	1.0	n/a	n/a	1.0	0.581	Phon/Phon_run-01/ContS03.wav	1.0	1	1.331
35.9529	4.378	P_R	1.0	n/a	n/a	1.0	1.5959999999999999	Phon/Phon_run-01/stereo_PR29.wav	1.0	1	1.346
40.3393	3.4810000000000003	P_U	2.0	n/a	n/a	1.0	1.7919999999999998	Phon/Phon_run-01/PM020.wav	1.0	0	1.5419999999999998
43.8252	4.393	P_O	1.0	n/a	n/a	1.0	1.4409999999999998	Phon/Phon_run-01/PC027.wav	1.0	1	1.1909999999999998
48.2284	4.4	P_R	1.0	n/a	n/a	2.0	1.5659999999999998	Phon/Phon_run-01/stereo_PR11.wav	2.0	0	1.3159999999999998
52.6316	3.884	P_C	1.0	n/a	n/a	1.0	0.35600000000000004	Phon/Phon_run-01/ContS05.wav	1.0	1	1.106
56.5186	3.891	P_U	2.0	n/a	n/a	2.0	1.963	Phon/Phon_run-01/stereo_PU28.wav	2.0	1	1.713
60.4213	4.4	P_O	1.0	n/a	n/a	1.0	1.733	Phon/Phon_run-01/PC013.wav	1.0	1	1.483
64.8247	3.513	P_C	1.0	n/a	n/a	1.0	1.357	Phon/Phon_run-01/ContS17.wav	1.0	1	2.107
68.3439	4.4	P_U	2.0	n/a	n/a	1.0	1.504	Phon/Phon_run-01/PM027.wav	1.0	0	1.254
72.7471	4.4	P_O	1.0	n/a	n/a	2.0	0.845	Phon/Phon_run-01/PC021.wav	2.0	0	0.595
77.1504	4.496	P_C	1.0	n/a	n/a	1.0	0.25	Phon/Phon_run-01/ContS29.wav	1.0	1	1.0
81.6536	3.3680000000000003	P_R	1.0	n/a	n/a	1.0	1.446	Phon/Phon_run-01/stereo_PR25.wav	1.0	1	1.196
85.0239	3.95	P_O	1.0	n/a	n/a	1.0	1.014	Phon/Phon_run-01/PC012.wav	1.0	1	0.764
88.9768	3.95	P_U	2.0	n/a	n/a	2.0	1.179	Phon/Phon_run-01/PM003.wav	2.0	1	0.929
92.9297	3.939	P_O	1.0	n/a	n/a	1.0	2.637	Phon/Phon_run-01/PC004.wav	1.0	1	2.387
96.8826	3.59	P_C	1.0	n/a	n/a	1.0	0.158	Phon/Phon_run-01/ContS27.wav	1.0	1	0.908
100.4851	4.296	P_U	2.0	n/a	n/a	2.0	2.0869999999999997	Phon/Phon_run-01/stereo_PU21.wav	2.0	1	1.8370000000000002
104.7882	3.862	P_R	1.0	n/a	n/a	1.0	1.337	Phon/Phon_run-01/stereo_PR26.wav	1.0	1	1.087
108.6576	3.95	P_O	1.0	n/a	n/a	1.0	1.855	Phon/Phon_run-01/PC026.wav	1.0	1	1.605
112.6107	3.5	P_O	1.0	n/a	n/a	2.0	1.173	Phon/Phon_run-01/PC025.wav	2.0	0	0.923
116.1133	4.013	P_C	1.0	n/a	n/a	1.0	0.359	Phon/Phon_run-01/ContS23.wav	1.0	1	1.109
120.1329	3.792	P_R	1.0	n/a	n/a	1.0	2.365	Phon/Phon_run-01/stereo_PR18.wav	1.0	1	2.115
123.9359	3.346	P_U	2.0	n/a	n/a	1.0	2.005	Phon/Phon_run-01/stereo_PU19.wav	1.0	0	1.755
127.2885	3.891	P_R	1.0	n/a	n/a	2.0	0.778	Phon/Phon_run-01/stereo_PR03.wav	2.0	0	0.528
131.1913	3.355	P_O	1.0	n/a	n/a	1.0	2.062	Phon/Phon_run-01/PC003.wav	1.0	1	1.8119999999999998
134.5604	3.951	P_C	1.0	1.0	0.606	n/a	n/a	Phon/Phon_run-01/ContS15.wav	1.0	1	0.606
138.5144	3.74	P_U	2.0	n/a	n/a	1.0	1.32	Phon/Phon_run-01/stereo_PU16.wav	1.0	0	1.07
142.2671	3.95	P_R	1.0	n/a	n/a	1.0	1.274	Phon/Phon_run-01/stereo_PR10.wav	1.0	1	1.024
146.22	3.464	P_C	1.0	n/a	n/a	1.0	1.3559999999999999	Phon/Phon_run-01/ContS09.wav	1.0	1	2.106
149.6892	4.275	P_R	1.0	n/a	n/a	1.0	1.331	Phon/Phon_run-01/stereo_PR04.wav	1.0	1	1.081
153.9756	3.95	P_U	2.0	n/a	n/a	1.0	1.183	Phon/Phon_run-01/PM023.wav	1.0	0	0.933
157.9284	4.4	P_U	2.0	n/a	n/a	2.0	2.028	Phon/Phon_run-01/PM001.wav	2.0	1	1.778
162.3319	3.665	P_C	1.0	n/a	n/a	1.0	0.94	Phon/Phon_run-01/ContS35.wav	1.0	1	1.69
166.0011	3.463	P_O	1.0	n/a	n/a	1.0	1.508	Phon/Phon_run-01/PC017.wav	1.0	1	1.258
169.4703	4.332	P_R	1.0	n/a	n/a	1.0	1.392	Phon/Phon_run-01/stereo_PR19.wav	1.0	1	1.142
173.8067	4.083	P_C	1.0	n/a	n/a	1.0	0.836	Phon/Phon_run-01/ContS33.wav	1.0	1	1.5859999999999999
177.893	3.5	P_R	1.0	n/a	n/a	1.0	1.21	Phon/Phon_run-01/stereo_PR17.wav	1.0	1	0.96
181.3956	4.2669999999999995	P_U	2.0	n/a	n/a	1.0	1.4780000000000002	Phon/Phon_run-01/PM009.wav	1.0	0	1.2280000000000002
185.6658	3.4389999999999996	P_R	1.0	n/a	n/a	2.0	0.8440000000000001	Phon/Phon_run-01/stereo_PR09.wav	2.0	0	0.5940000000000001
