onset	duration	trial_type	correct	window1_response	window1_RT	window2_response	window2_RT	stim_file	calculated_response	calculated_accuracy	calculated_RT
1.084	3.5	P_R	1.0	n/a	n/a	1.0	1.515	Phon/Phon_run-02/stereo_PR20.wav	1.0	1	1.265
4.587	4.235	P_O	1.0	n/a	n/a	1.0	1.6159999999999999	Phon/Phon_run-02/PC034.wav	1.0	1	1.3659999999999999
8.823	3.375	P_R	1.0	n/a	n/a	1.0	1.2409999999999999	Phon/Phon_run-02/stereo_PR13.wav	1.0	1	0.9909999999999999
12.209000000000001	3.474	P_C	1.0	n/a	n/a	1.0	0.037000000000000005	Phon/Phon_run-02/ContS12.wav	1.0	1	0.787
15.695	3.875	P_U	2.0	n/a	n/a	2.0	1.163	Phon/Phon_run-02/PM025.wav	2.0	1	0.913
19.581	3.726	P_R	1.0	n/a	n/a	1.0	1.21	Phon/Phon_run-02/stereo_PR22.wav	1.0	1	0.96
23.318	3.451	P_O	1.0	n/a	n/a	1.0	1.3159999999999998	Phon/Phon_run-02/PC014.wav	1.0	1	1.0659999999999998
26.77	3.779	P_C	1.0	n/a	n/a	1.0	0.025	Phon/Phon_run-02/ContS02.wav	1.0	1	0.775
30.55599999999999	3.821	P_U	2.0	n/a	n/a	2.0	1.182	Phon/Phon_run-02/stereo_PU18.wav	2.0	1	0.9319999999999999
34.393	3.49	P_U	2.0	n/a	n/a	1.0	1.3730000000000002	Phon/Phon_run-02/stereo_PU12.wav	1.0	0	1.1230000000000002
37.895	4.38	P_C	1.0	n/a	n/a	1.0	0.11900000000000001	Phon/Phon_run-02/ContS32.wav	1.0	1	0.869
42.282	4.0969999999999995	P_R	1.0	n/a	n/a	1.0	1.281	Phon/Phon_run-02/stereo_PR16.wav	1.0	1	1.031
46.385	3.5	P_O	1.0	n/a	n/a	1.0	1.265	Phon/Phon_run-02/PC022.wav	1.0	1	1.015
49.88800000000001	4.0760000000000005	P_R	1.0	n/a	n/a	1.0	1.246	Phon/Phon_run-02/stereo_PR08.wav	1.0	1	0.996
53.974	3.5	P_O	1.0	n/a	n/a	1.0	1.29	Phon/Phon_run-02/PC028.wav	1.0	1	1.04
57.477	3.5	P_U	2.0	n/a	n/a	2.0	1.429	Phon/Phon_run-02/stereo_PU27.wav	2.0	1	1.179
60.979	3.819	P_C	1.0	n/a	n/a	1.0	0.073	Phon/Phon_run-02/ContS06.wav	1.0	1	0.823
64.79899999999999	4.25	P_O	1.0	n/a	n/a	1.0	1.526	Phon/Phon_run-02/PC031.wav	1.0	1	1.276
69.05199999999999	3.662	P_C	1.0	n/a	n/a	1.0	0.122	Phon/Phon_run-02/ContS36.wav	1.0	1	0.872
72.722	3.823	P_O	1.0	n/a	n/a	1.0	1.98	Phon/Phon_run-02/PC023.wav	1.0	1	1.73
76.558	4.323	P_C	1.0	n/a	n/a	1.0	0.023	Phon/Phon_run-02/ContS24.wav	1.0	1	0.773
80.895	3.865	P_U	2.0	n/a	n/a	2.0	1.213	Phon/Phon_run-02/PM004.wav	2.0	1	0.9630000000000001
84.764	3.875	P_O	1.0	n/a	n/a	1.0	1.1520000000000001	Phon/Phon_run-02/PC007.wav	1.0	1	0.9020000000000001
88.65	4.25	P_U	2.0	n/a	n/a	2.0	1.6019999999999999	Phon/Phon_run-02/PM011.wav	2.0	1	1.3519999999999999
92.904	4.362	P_C	1.0	1.0	0.715	1.0	0.449	Phon/Phon_run-02/ContS30.wav	1.0	1	0.715
97.274	3.875	P_O	1.0	n/a	n/a	2.0	1.189	Phon/Phon_run-02/PC030.wav	2.0	0	0.9390000000000001
101.16	3.3360000000000003	P_R	1.0	n/a	n/a	1.0	1.113	Phon/Phon_run-02/stereo_PR05.wav	1.0	1	0.863
104.49600000000001	4.113	P_U	2.0	n/a	n/a	2.0	1.4580000000000002	Phon/Phon_run-02/stereo_PU01.wav	2.0	1	1.2080000000000002
108.616	4.1739999999999995	P_U	2.0	n/a	n/a	2.0	1.578	Phon/Phon_run-02/PM029.wav	2.0	1	1.328
112.802	3.4539999999999997	P_C	1.0	n/a	n/a	1.0	0.22	Phon/Phon_run-02/ContS08.wav	1.0	1	0.97
116.271	3.446	P_R	1.0	n/a	n/a	1.0	1.074	Phon/Phon_run-02/stereo_PR30.wav	1.0	1	0.8240000000000001
119.72399999999999	3.85	P_R	1.0	n/a	n/a	1.0	1.041	Phon/Phon_run-02/stereo_PR07.wav	1.0	1	0.7909999999999999
123.57700000000001	3.438	P_U	2.0	n/a	n/a	2.0	1.275	Phon/Phon_run-02/stereo_PU02.wav	2.0	1	1.025
127.03	3.915	P_C	1.0	n/a	n/a	1.0	0.46799999999999997	Phon/Phon_run-02/ContS20.wav	1.0	1	1.218
130.94899999999998	3.487	P_U	2.0	n/a	n/a	2.0	1.53	Phon/Phon_run-02/PM021.wav	2.0	1	1.28
134.452	3.965	P_C	1.0	n/a	n/a	1.0	0.325	Phon/Phon_run-02/ContS26.wav	1.0	1	1.075
138.421	3.792	P_R	1.0	n/a	n/a	1.0	1.273	Phon/Phon_run-02/stereo_PR31.wav	1.0	1	1.023
142.224	4.135	P_O	1.0	n/a	n/a	1.0	1.354	Phon/Phon_run-02/PC024.wav	1.0	1	1.104
146.361	3.875	P_U	2.0	n/a	n/a	2.0	1.739	Phon/Phon_run-02/PM010.wav	2.0	1	1.489
150.247	3.875	P_O	1.0	n/a	n/a	1.0	1.368	Phon/Phon_run-02/PC015.wav	1.0	1	1.118
154.13299999999995	4.245	P_C	1.0	1.0	0.687	1.0	0.515	Phon/Phon_run-02/ContS14.wav	1.0	1	0.687
158.387	3.854	P_R	1.0	n/a	n/a	1.0	1.091	Phon/Phon_run-02/stereo_PR14.wav	1.0	1	0.841
162.256	4.239	P_O	1.0	n/a	n/a	1.0	1.2790000000000001	Phon/Phon_run-02/PC008.wav	1.0	1	1.0290000000000001
166.50900000000001	4.25	P_U	2.0	n/a	n/a	2.0	1.492	Phon/Phon_run-02/stereo_PU11.wav	2.0	1	1.242
170.763	3.523	P_C	1.0	1.0	0.74	1.0	0.48100000000000004	Phon/Phon_run-02/ContS18.wav	1.0	1	0.74
174.299	3.429	P_O	1.0	n/a	n/a	1.0	1.1440000000000001	Phon/Phon_run-02/PC006.wav	1.0	1	0.8940000000000001
177.735	4.18	P_R	1.0	n/a	n/a	1.0	1.305	Phon/Phon_run-02/stereo_PR32.wav	1.0	1	1.055
181.921	4.104	P_R	1.0	n/a	n/a	1.0	1.121	Phon/Phon_run-02/stereo_PR24.wav	1.0	1	0.871
