onset	duration	trial_type	correct	window1_response	window1_RT	window2_response	window2_RT	stim_file	calculated_response	calculated_accuracy	calculated_RT
1.085	7.632999999999999	G_P	2.0	n/a	n/a	2.0	3.9810000000000003	Gram/Gram_run-02/stereo_1MP45U4.wav	2.0	1	1.8499999999999996
8.724	7.315	G_F	2.0	n/a	n/a	2.0	4.0969999999999995	Gram/Gram_run-02/stereo_1MF20U4.wav	2.0	1	3.387
16.046	6.2829999999999995	G_P	2.0	n/a	n/a	2.0	3.503	Gram/Gram_run-02/stereo_1MP34U2.wav	2.0	1	2.411
22.334	6.195	G_C	1.0	n/a	n/a	1.0	3.591	Gram/Gram_run-02/CoM06d.wav	1.0	1	4.341
28.539	6.221	G_G	1.0	n/a	n/a	1.0	3.987	Gram/Gram_run-02/stereo_1MF02G1.wav	1.0	1	1.947
34.760999999999996	5.801	G_F	2.0	n/a	n/a	2.0	3.2680000000000002	Gram/Gram_run-02/stereo_2MF64U3.wav	2.0	1	4.018
40.565	6.78	G_C	1.0	n/a	n/a	1.0	2.1790000000000003	Gram/Gram_run-02/CoM07l.wav	1.0	1	2.9290000000000003
47.354	6.084	G_F	2.0	n/a	n/a	1.0	3.435	Gram/Gram_run-02/stereo_2MF56U2.wav	1.0	0	4.1850000000000005
53.442	7.5470000000000015	G_F	2.0	n/a	n/a	2.0	3.5810000000000004	Gram/Gram_run-02/stereo_1MF21U4.wav	2.0	1	2.83
60.997	6.482	G_G	1.0	n/a	n/a	1.0	4.0089999999999995	Gram/Gram_run-02/stereo_1MF24G4.wav	1.0	1	1.6480000000000006
67.486	6.7810000000000015	G_P	2.0	n/a	n/a	2.0	4.611000000000001	Gram/Gram_run-02/stereo_2MP76U1.wav	2.0	1	2.349000000000002
74.274	6.643	G_P	2.0	n/a	n/a	2.0	3.2489999999999997	Gram/Gram_run-02/stereo_2MP80U2.wav	2.0	1	2.293
80.929	7.69	G_C	1.0	n/a	n/a	1.0	4.302	Gram/Gram_run-02/CoM06e.wav	1.0	1	5.052
88.619	6.352	G_F	2.0	n/a	n/a	2.0	3.517	Gram/Gram_run-02/stereo_2MF63U3.wav	2.0	1	4.2669999999999995
94.974	5.801	G_G	1.0	n/a	n/a	1.0	3.327	Gram/Gram_run-02/stereo_1MF18G3.wav	1.0	1	1.944
100.778	7.1129999999999995	G_P	2.0	n/a	n/a	2.0	4.21	Gram/Gram_run-02/stereo_1MP44U4.wav	2.0	1	1.8529999999999998
107.9	6.78	G_C	1.0	n/a	n/a	n/a	n/a	Gram/Gram_run-02/CoM05b.wav	n/a	0	n/a
114.689	6.7360000000000015	G_F	2.0	n/a	n/a	2.0	5.313	Gram/Gram_run-02/stereo_2MF58U2.wav	2.0	1	6.063
121.427	6.0889999999999995	G_P	2.0	n/a	n/a	2.0	3.117	Gram/Gram_run-02/stereo_2MP87U3.wav	2.0	1	1.905
127.532	7.6370000000000005	G_P	2.0	n/a	n/a	2.0	4.033	Gram/Gram_run-02/stereo_2MP73U1.wav	2.0	1	2.0060000000000002
135.171	7.305	G_C	1.0	n/a	n/a	1.0	4.096	Gram/Gram_run-02/CoM02l.wav	1.0	1	4.846
142.477	5.983	G_G	1.0	n/a	n/a	2.0	3.116	Gram/Gram_run-02/stereo_1MP42G3.wav	2.0	0	2.194
148.465	5.36	G_P	2.0	n/a	n/a	2.0	2.8689999999999998	Gram/Gram_run-02/stereo_1MP32U2.wav	2.0	1	1.863
153.836	7.145	G_C	1.0	n/a	n/a	1.0	3.9219999999999997	Gram/Gram_run-02/CoM09e.wav	1.0	1	4.672000000000001
160.991	6.28	G_F	2.0	n/a	n/a	1.0	4.878	Gram/Gram_run-02/stereo_1MF19U4.wav	1.0	0	4.192
167.27900000000002	6.63	G_C	1.0	n/a	n/a	1.0	3.342	Gram/Gram_run-02/CoM07b.wav	1.0	1	4.0920000000000005
173.918	7.195	G_G	1.0	n/a	n/a	1.0	4.275	Gram/Gram_run-02/stereo_2MP89G3.wav	1.0	1	2.9370000000000003
181.123	5.1739999999999995	G_F	2.0	n/a	n/a	2.0	2.365	Gram/Gram_run-02/stereo_1MF07U2.wav	2.0	1	3.115
186.311	6.944	G_P	2.0	n/a	n/a	2.0	3.983	Gram/Gram_run-02/stereo_2MP88U3.wav	2.0	1	2.9400000000000004
193.266	6.0889999999999995	G_G	1.0	n/a	n/a	1.0	3.458	Gram/Gram_run-02/stereo_2MF66G3.wav	1.0	1	2.0840000000000005
199.371	6.5	G_C	1.0	n/a	n/a	n/a	n/a	Gram/Gram_run-02/CoM01e.wav	1.0	1	6.797
205.876	6.43	G_P	2.0	1.0	0.297	2.0	3.688	Gram/Gram_run-02/stereo_1MP43U4.wav	2.0	1	1.4060000000000001
212.314	6.19	G_G	1.0	n/a	n/a	1.0	2.697	Gram/Gram_run-02/stereo_2MP84G2.wav	1.0	1	1.7650000000000001
218.519	7.114	G_G	1.0	n/a	n/a	1.0	3.898	Gram/Gram_run-02/stereo_1MP29G1.wav	1.0	1	1.71
225.641	6.731	G_F	2.0	n/a	n/a	2.0	4.109	Gram/Gram_run-02/stereo_2MF53U1.wav	2.0	1	3.538
232.379	6.015	G_C	1.0	n/a	n/a	1.0	3.7710000000000004	Gram/Gram_run-02/CoM02d.wav	1.0	1	4.521
238.401	7.17	G_G	1.0	n/a	n/a	1.0	3.596	Gram/Gram_run-02/stereo_2MF71G4.wav	1.0	1	1.3469999999999995
245.573	5.33	G_C	1.0	n/a	n/a	1.0	3.076	Gram/Gram_run-02/CoM06b.wav	1.0	1	3.826
250.91	6.9689999999999985	G_F	2.0	n/a	n/a	2.0	3.577	Gram/Gram_run-02/stereo_2MF54U1.wav	2.0	1	3.007
257.882	7.6	G_G	1.0	n/a	n/a	1.0	4.178	Gram/Gram_run-02/stereo_2MF49G1.wav	1.0	1	1.9889999999999999
