onset	duration	trial_type	correct	window1_response	window1_RT	window2_response	window2_RT	stim_file	calculated_response	calculated_accuracy	calculated_RT
1.084	4.2	S_U	2.0	n/a	n/a	2.0	1.247	Sem/Sem_run-01/stereo_1SU41A0.wav	2.0	1	0.997
5.287000000000001	3.596	S_C	1.0	n/a	n/a	1.0	0.474	Sem/Sem_run-01/ContS29.wav	1.0	1	1.224
8.89	3.425	S_U	2.0	n/a	n/a	2.0	1.386	Sem/Sem_run-01/stereo_2SU87A0.wav	2.0	1	1.136
12.325999999999999	3.933	S_H	1.0	n/a	n/a	1.0	1.433	Sem/Sem_run-01/stereo_1SH13A0.wav	1.0	1	1.183
16.262	4.323	S_H	1.0	n/a	n/a	1.0	1.2830000000000001	Sem/Sem_run-01/stereo_1SH05A0.wav	1.0	1	1.033
20.599	4.073	S_C	1.0	n/a	n/a	1.0	1.236	Sem/Sem_run-01/ContS31.wav	1.0	1	1.986
24.685	3.869	S_L	1.0	n/a	n/a	1.0	1.419	Sem/Sem_run-01/stereo_2SL63A0.wav	1.0	1	1.169
28.555	3.75	S_L	1.0	n/a	n/a	1.0	1.365	Sem/Sem_run-01/stereo_1SL29A0.wav	1.0	1	1.115
32.308	4.3660000000000005	S_U	2.0	n/a	n/a	2.0	1.6219999999999999	Sem/Sem_run-01/stereo_2SU78A0.wav	2.0	1	1.3719999999999999
36.678000000000004	3.3	S_L	1.0	n/a	n/a	1.0	1.74	Sem/Sem_run-01/stereo_1SL17A0.wav	1.0	1	1.49
39.98	3.884	S_C	1.0	n/a	n/a	1.0	1.1540000000000001	Sem/Sem_run-01/ContS05.wav	1.0	1	1.9040000000000001
43.867	4.371	S_H	1.0	n/a	n/a	1.0	1.24	Sem/Sem_run-01/stereo_2SH58A0.wav	1.0	1	0.99
48.254	4.329	S_L	1.0	n/a	n/a	1.0	1.265	Sem/Sem_run-01/stereo_2SL72A0.wav	1.0	1	1.015
52.59	3.94	S_H	1.0	n/a	n/a	2.0	1.2830000000000001	Sem/Sem_run-01/stereo_2SH57A0.wav	2.0	0	1.033
56.543	4.2	S_U	2.0	n/a	n/a	2.0	1.6909999999999998	Sem/Sem_run-01/stereo_2SU83A0.wav	2.0	1	1.4409999999999998
60.747	3.474	S_C	1.0	n/a	n/a	1.0	1.183	Sem/Sem_run-01/ContS11.wav	1.0	1	1.933
64.233	4.271	S_L	1.0	n/a	n/a	2.0	2.1069999999999998	Sem/Sem_run-01/stereo_1SL26A0.wav	2.0	0	1.857
68.51899999999999	3.91	S_L	1.0	n/a	n/a	1.0	1.7830000000000001	Sem/Sem_run-01/stereo_1SL25A0.wav	1.0	1	1.5330000000000001
72.439	4.479	S_C	1.0	n/a	n/a	1.0	1.055	Sem/Sem_run-01/ContS25.wav	1.0	1	1.805
76.926	3.378	S_U	2.0	n/a	n/a	2.0	1.508	Sem/Sem_run-01/stereo_2SU81A0.wav	2.0	1	1.258
80.312	3.42	S_L	1.0	n/a	n/a	1.0	1.601	Sem/Sem_run-01/stereo_1SL27A0.wav	1.0	1	1.351
83.74799999999998	4.3439999999999985	S_L	1.0	n/a	n/a	1.0	1.453	Sem/Sem_run-01/stereo_1SL30A0.wav	1.0	1	1.203
88.101	3.909	S_L	1.0	n/a	n/a	1.0	1.516	Sem/Sem_run-01/stereo_2SL71A0.wav	1.0	1	1.266
92.021	3.867	S_H	1.0	n/a	n/a	1.0	1.6540000000000001	Sem/Sem_run-01/stereo_1SH04A0.wav	1.0	1	1.4040000000000001
95.89	3.828	S_U	2.0	n/a	n/a	2.0	1.786	Sem/Sem_run-01/stereo_1SU37A0.wav	2.0	1	1.536
99.727	4.565	S_C	1.0	n/a	n/a	1.0	0.83	Sem/Sem_run-01/ContS35.wav	1.0	1	1.58
104.29700000000001	3.3	S_U	2.0	n/a	n/a	2.0	1.082	Sem/Sem_run-01/stereo_1SU35A0.wav	2.0	1	0.8320000000000001
107.59899999999999	3.477	S_L	1.0	n/a	n/a	1.0	1.608	Sem/Sem_run-01/stereo_2SL65A0.wav	1.0	1	1.358
111.085	3.83	S_H	1.0	n/a	n/a	2.0	1.693	Sem/Sem_run-01/stereo_1SH07A0.wav	2.0	0	1.443
114.92200000000001	4.3439999999999985	S_C	1.0	n/a	n/a	1.0	1.04	Sem/Sem_run-01/ContS07.wav	1.0	1	1.79
119.275	3.5	S_H	1.0	n/a	n/a	1.0	1.2309999999999999	Sem/Sem_run-01/stereo_1SH03A0.wav	1.0	1	0.981
122.77799999999999	3.919	S_U	2.0	n/a	n/a	2.0	1.238	Sem/Sem_run-01/stereo_1SU45A0.wav	2.0	1	0.988
126.698	3.5	S_H	1.0	n/a	n/a	1.0	1.3630000000000002	Sem/Sem_run-01/stereo_1SH06A0.wav	1.0	1	1.1130000000000002
130.2	3.392	S_L	1.0	n/a	n/a	1.0	1.5759999999999998	Sem/Sem_run-01/stereo_2SL62A0.wav	1.0	1	1.3259999999999998
133.60299999999998	3.54	S_C	1.0	n/a	n/a	1.0	1.275	Sem/Sem_run-01/ContS19.wav	1.0	1	2.025
137.156	4.4	S_H	1.0	n/a	n/a	1.0	1.575	Sem/Sem_run-01/stereo_1SH15A0.wav	1.0	1	1.325
141.559	3.342	S_H	1.0	n/a	n/a	1.0	1.251	Sem/Sem_run-01/stereo_1SH11A0.wav	1.0	1	1.001
144.912	3.385	S_U	2.0	n/a	n/a	2.0	1.4369999999999998	Sem/Sem_run-01/stereo_1SU44A0.wav	2.0	1	1.1869999999999998
148.298	3.4160000000000004	S_H	1.0	n/a	n/a	1.0	1.454	Sem/Sem_run-01/stereo_2SH56A0.wav	1.0	1	1.204
151.717	3.849	S_U	2.0	n/a	n/a	2.0	1.401	Sem/Sem_run-01/stereo_2SU82A0.wav	2.0	1	1.151
155.57	3.934	S_C	1.0	n/a	n/a	1.0	0.8690000000000001	Sem/Sem_run-01/ContS13.wav	1.0	1	1.6190000000000002
159.506	4.309	S_L	1.0	n/a	n/a	1.0	1.393	Sem/Sem_run-01/stereo_2SL64A0.wav	1.0	1	1.143
163.826	4.413	S_C	1.0	n/a	n/a	1.0	1.29	Sem/Sem_run-01/ContS17.wav	1.0	1	2.04
168.24599999999995	4.2	S_U	2.0	n/a	n/a	2.0	1.604	Sem/Sem_run-01/stereo_2SU90A0.wav	2.0	1	1.354
172.45	3.846	S_U	2.0	n/a	n/a	2.0	1.4680000000000002	Sem/Sem_run-01/stereo_2SU88A0.wav	2.0	1	1.2180000000000002
176.303	3.3939999999999997	S_C	1.0	n/a	n/a	1.0	0.972	Sem/Sem_run-01/ContS01.wav	1.0	1	1.722
179.705	4.013	S_C	1.0	n/a	n/a	1.0	0.794	Sem/Sem_run-01/ContS23.wav	1.0	1	1.544
183.725	4.227	S_H	1.0	n/a	n/a	2.0	1.9680000000000002	Sem/Sem_run-01/stereo_1SH08A0.wav	2.0	0	1.7180000000000002
