onset	duration	trial_type	correct	window1_response	window1_RT	window2_response	window2_RT	stim_file	calculated_response	calculated_accuracy	calculated_RT
1.0964	7.034	SP_W	1.0	n/a	n/a	1.0	3.7880000000000003	Plaus/Plaus_run-01/stereo_PW85.wav	1.0	1	1.6409999999999996
8.1359	5.641	SP_I	2.0	n/a	n/a	2.0	2.8569999999999998	Plaus/Plaus_run-01/stereo_PI11.wav	2.0	1	1.937
13.79	6.77	SP_C	1.0	1.0	0.6679999999999999	n/a	n/a	Plaus/Plaus_run-01/CoM08b.wav	1.0	1	0.6679999999999999
20.5628	7.327000000000001	SP_W	1.0	n/a	n/a	1.0	3.66	Plaus/Plaus_run-01/stereo_PW72.wav	1.0	1	1.6800000000000002
27.9014	6.145	SP_C	1.0	1.0	0.579	n/a	n/a	Plaus/Plaus_run-01/CoM05d.wav	1.0	1	0.579
34.0559	5.181	SP_I	2.0	n/a	n/a	2.0	2.96	Plaus/Plaus_run-01/stereo_PI65.wav	2.0	1	2.018
39.243	5.092	SP_S	1.0	n/a	n/a	n/a	n/a	Plaus/Plaus_run-01/stereo_PC13.wav	n/a	0	n/a
44.3468	7.355	SP_C	1.0	2.0	0.024	1.0	0.044000000000000004	Plaus/Plaus_run-01/CoM06l.wav	2.0	0	0.024
51.7032	7.47	SP_I	2.0	n/a	n/a	2.0	4.713	Plaus/Plaus_run-01/stereo_PI90.wav	2.0	1	2.5420000000000003
59.1764	7.399	SP_S	1.0	n/a	n/a	1.0	4.075	Plaus/Plaus_run-01/stereo_PC35.wav	1.0	1	1.8080000000000003
66.5818	5.685	SP_S	1.0	n/a	n/a	1.0	2.504	Plaus/Plaus_run-01/stereo_PC47.wav	1.0	1	1.4949999999999999
72.2704	5.669	SP_W	1.0	n/a	n/a	1.0	2.972	Plaus/Plaus_run-01/stereo_PW19.wav	1.0	1	1.966
77.9423	7.9	SP_C	1.0	1.0	0.7120000000000001	n/a	n/a	Plaus/Plaus_run-01/CoM03l.wav	1.0	1	0.7120000000000001
85.8483	5.145	SP_I	2.0	n/a	n/a	2.0	3.458	Plaus/Plaus_run-01/stereo_PI09.wav	2.0	1	2.45
91.0021	6.9170000000000025	SP_W	1.0	n/a	n/a	2.0	3.97	Plaus/Plaus_run-01/stereo_PW30.wav	2.0	0	1.85
97.9243	5.738	SP_S	1.0	n/a	n/a	1.0	2.907	Plaus/Plaus_run-01/stereo_PC14.wav	1.0	1	1.736
103.6662	6.276	SP_W	1.0	n/a	n/a	1.0	3.36	Plaus/Plaus_run-01/stereo_PW50.wav	1.0	1	2.538
109.954	5.49	SP_C	1.0	1.0	0.738	n/a	n/a	Plaus/Plaus_run-01/CoM03d.wav	1.0	1	0.738
115.458	5.7	SP_I	2.0	n/a	n/a	2.0	2.9739999999999998	Plaus/Plaus_run-01/stereo_PI67.wav	2.0	1	2.083
121.1625	7.237	SP_S	1.0	n/a	n/a	1.0	3.2460000000000004	Plaus/Plaus_run-01/stereo_PC68.wav	1.0	1	1.2800000000000002
128.4022	6.49	SP_C	1.0	n/a	n/a	1.0	0.047	Plaus/Plaus_run-01/CoM03b.wav	1.0	1	0.797
134.9065	6.25	SP_W	1.0	n/a	n/a	n/a	n/a	Plaus/Plaus_run-01/stereo_PW61.wav	n/a	0	n/a
141.161	6.952999999999999	SP_I	2.0	n/a	n/a	2.0	4.588	Plaus/Plaus_run-01/stereo_PI32.wav	2.0	1	2.423
148.1173	7.085	SP_C	1.0	1.0	0.6509999999999999	1.0	2.4819999999999998	Plaus/Plaus_run-01/CoM02e.wav	1.0	1	0.6509999999999999
155.2068	6.3610000000000015	SP_S	1.0	n/a	n/a	1.0	3.4819999999999998	Plaus/Plaus_run-01/stereo_PC24.wav	1.0	1	1.2240000000000002
161.5781	5.1110000000000015	SP_W	1.0	n/a	n/a	2.0	3.4139999999999997	Plaus/Plaus_run-01/stereo_PW53.wav	2.0	0	2.4000000000000004
166.6985	6.2860000000000005	SP_I	2.0	n/a	n/a	2.0	3.9560000000000004	Plaus/Plaus_run-01/stereo_PI42.wav	2.0	1	1.7600000000000002
172.9876	6.577000000000001	SP_S	1.0	n/a	n/a	1.0	3.485	Plaus/Plaus_run-01/stereo_PC57.wav	1.0	1	2.29
179.5757	5.273	SP_W	1.0	n/a	n/a	1.0	3.693	Plaus/Plaus_run-01/stereo_PW18.wav	1.0	1	2.526
184.8629	5.77	SP_C	1.0	n/a	n/a	1.0	0.858	Plaus/Plaus_run-01/CoM09b.wav	1.0	1	1.608
190.6348	6.731	SP_S	1.0	n/a	n/a	1.0	3.387	Plaus/Plaus_run-01/stereo_PC26.wav	1.0	1	1.287
197.3731	7.212999999999999	SP_I	2.0	n/a	n/a	2.0	4.073	Plaus/Plaus_run-01/stereo_PI33.wav	2.0	1	2.0900000000000003
204.595	5.181	SP_S	1.0	n/a	n/a	1.0	3.951	Plaus/Plaus_run-01/stereo_PC01.wav	1.0	1	3.0100000000000002
209.7821	6.238	SP_S	1.0	n/a	n/a	1.0	3.873	Plaus/Plaus_run-01/stereo_PC36.wav	1.0	1	1.827
216.0211	7.73	SP_C	1.0	1.0	0.573	n/a	n/a	Plaus/Plaus_run-01/CoM10e.wav	1.0	1	0.573
223.7601	6.843	SP_I	2.0	n/a	n/a	n/a	n/a	Plaus/Plaus_run-01/stereo_PI45.wav	n/a	0	n/a
230.615	6.101	SP_W	1.0	n/a	n/a	2.0	4.4510000000000005	Plaus/Plaus_run-01/stereo_PW28.wav	2.0	0	2.519
236.7206	7.419	SP_W	1.0	n/a	n/a	1.0	3.6189999999999998	Plaus/Plaus_run-01/stereo_PW86.wav	1.0	1	1.5830000000000006
244.1438	6.54	SP_C	1.0	1.0	0.743	1.0	2.384	Plaus/Plaus_run-01/CoM05e.wav	1.0	1	0.743
250.6981	6.247000000000001	SP_I	2.0	n/a	n/a	1.0	2.479	Plaus/Plaus_run-01/stereo_PI12.wav	1.0	0	1.608
