onset	duration	trial_type	correct	window1_response	window1_RT	window2_response	window2_RT	stim_file	calculated_response	calculated_accuracy	calculated_RT
1.0924	3.5	P_R	1.0	n/a	n/a	1.0	1.6380000000000001	Phon/Phon_run-02/stereo_PR20.wav	1.0	1	1.388
4.595	4.235	P_O	1.0	n/a	n/a	2.0	1.9140000000000001	Phon/Phon_run-02/PC034.wav	2.0	0	1.664
8.8325	3.375	P_R	1.0	n/a	n/a	1.0	1.8230000000000002	Phon/Phon_run-02/stereo_PR13.wav	1.0	1	1.573
12.2183	3.474	P_C	1.0	n/a	n/a	1.0	0.48200000000000004	Phon/Phon_run-02/ContS12.wav	1.0	1	1.232
15.7041	3.875	P_U	2.0	n/a	n/a	2.0	1.349	Phon/Phon_run-02/PM025.wav	2.0	1	1.099
19.5903	3.726	P_R	1.0	n/a	n/a	1.0	1.371	Phon/Phon_run-02/stereo_PR22.wav	1.0	1	1.121
23.3263	3.451	P_O	1.0	n/a	n/a	1.0	1.5030000000000001	Phon/Phon_run-02/PC014.wav	1.0	1	1.253
26.7799	3.779	P_C	1.0	n/a	n/a	1.0	0.40700000000000003	Phon/Phon_run-02/ContS02.wav	1.0	1	1.157
30.566	3.821	P_U	2.0	n/a	n/a	2.0	1.507	Phon/Phon_run-02/stereo_PU18.wav	2.0	1	1.257
34.402	3.49	P_U	2.0	n/a	n/a	2.0	1.745	Phon/Phon_run-02/stereo_PU12.wav	2.0	1	1.495
37.9046	4.38	P_C	1.0	n/a	n/a	1.0	1.217	Phon/Phon_run-02/ContS32.wav	1.0	1	1.967
42.291000000000004	4.0969999999999995	P_R	1.0	n/a	n/a	1.0	1.796	Phon/Phon_run-02/stereo_PR16.wav	1.0	1	1.546
46.394	3.5	P_O	1.0	n/a	n/a	1.0	1.294	Phon/Phon_run-02/PC022.wav	1.0	1	1.044
49.8966	4.0760000000000005	P_R	1.0	n/a	n/a	1.0	1.4780000000000002	Phon/Phon_run-02/stereo_PR08.wav	1.0	1	1.2280000000000002
53.983000000000004	3.5	P_O	1.0	n/a	n/a	1.0	1.5859999999999999	Phon/Phon_run-02/PC028.wav	1.0	1	1.336
57.4856	3.5	P_U	2.0	n/a	n/a	2.0	1.8230000000000002	Phon/Phon_run-02/stereo_PU27.wav	2.0	1	1.573
60.9881	3.819	P_C	1.0	n/a	n/a	1.0	0.379	Phon/Phon_run-02/ContS06.wav	1.0	1	1.129
64.8086	4.25	P_O	1.0	n/a	n/a	1.0	2.161	Phon/Phon_run-02/PC031.wav	1.0	1	1.911
69.062	3.662	P_C	1.0	n/a	n/a	1.0	1.537	Phon/Phon_run-02/ContS36.wav	1.0	1	2.287
72.7312	3.823	P_O	1.0	n/a	n/a	1.0	1.929	Phon/Phon_run-02/PC023.wav	1.0	1	1.679
76.5674	4.323	P_C	1.0	n/a	n/a	1.0	0.725	Phon/Phon_run-02/ContS24.wav	1.0	1	1.475
80.9038	3.865	P_U	2.0	n/a	n/a	2.0	2.5810000000000004	Phon/Phon_run-02/PM004.wav	2.0	1	2.3310000000000004
84.7733	3.875	P_O	1.0	n/a	n/a	n/a	n/a	Phon/Phon_run-02/PC007.wav	n/a	0	n/a
88.6594	4.25	P_U	2.0	n/a	n/a	2.0	2.331	Phon/Phon_run-02/PM011.wav	2.0	1	2.081
92.9126	4.362	P_C	1.0	n/a	n/a	1.0	0.848	Phon/Phon_run-02/ContS30.wav	1.0	1	1.5979999999999999
97.2825	3.875	P_O	1.0	n/a	n/a	1.0	1.5530000000000002	Phon/Phon_run-02/PC030.wav	1.0	1	1.3030000000000002
101.1687	3.3360000000000003	P_R	1.0	n/a	n/a	1.0	1.3259999999999998	Phon/Phon_run-02/stereo_PR05.wav	1.0	1	1.0759999999999998
104.5077	4.113	P_U	2.0	n/a	n/a	2.0	1.5859999999999999	Phon/Phon_run-02/stereo_PU01.wav	2.0	1	1.336
108.6273	4.1739999999999995	P_U	2.0	n/a	n/a	2.0	1.993	Phon/Phon_run-02/PM029.wav	2.0	1	1.743
112.8137	3.4539999999999997	P_C	1.0	n/a	n/a	1.0	0.847	Phon/Phon_run-02/ContS08.wav	1.0	1	1.597
116.2828	3.446	P_R	1.0	n/a	n/a	n/a	n/a	Phon/Phon_run-02/stereo_PR30.wav	n/a	0	n/a
119.7352	3.85	P_R	1.0	n/a	n/a	1.0	1.5090000000000001	Phon/Phon_run-02/stereo_PR07.wav	1.0	1	1.259
123.588	3.438	P_U	2.0	n/a	n/a	2.0	1.986	Phon/Phon_run-02/stereo_PU02.wav	2.0	1	1.736
127.0406	3.915	P_C	1.0	n/a	n/a	1.0	1.1	Phon/Phon_run-02/ContS20.wav	1.0	1	1.85
130.9601	3.487	P_U	2.0	n/a	n/a	n/a	n/a	Phon/Phon_run-02/PM021.wav	n/a	0	n/a
134.46200000000002	3.965	P_C	1.0	n/a	n/a	1.0	1.347	Phon/Phon_run-02/ContS26.wav	1.0	1	2.097
138.4315	3.792	P_R	1.0	n/a	n/a	1.0	1.48	Phon/Phon_run-02/stereo_PR31.wav	1.0	1	1.23
142.2343	4.135	P_O	1.0	n/a	n/a	1.0	1.964	Phon/Phon_run-02/PC024.wav	1.0	1	1.714
146.3717	3.875	P_U	2.0	n/a	n/a	2.0	1.899	Phon/Phon_run-02/PM010.wav	2.0	1	1.649
150.2579	3.875	P_O	1.0	n/a	n/a	1.0	2.3409999999999997	Phon/Phon_run-02/PC015.wav	1.0	1	2.091
154.144	4.245	P_C	1.0	n/a	n/a	1.0	0.217	Phon/Phon_run-02/ContS14.wav	1.0	1	0.967
158.3971	3.854	P_R	1.0	n/a	n/a	n/a	n/a	Phon/Phon_run-02/stereo_PR14.wav	n/a	0	n/a
162.2662	4.239	P_O	1.0	n/a	n/a	1.0	1.218	Phon/Phon_run-02/PC008.wav	1.0	1	0.968
166.5192	4.25	P_U	2.0	n/a	n/a	2.0	1.68	Phon/Phon_run-02/stereo_PU11.wav	2.0	1	1.43
170.7726	3.523	P_C	1.0	n/a	n/a	1.0	0.231	Phon/Phon_run-02/ContS18.wav	1.0	1	0.981
174.3085	3.429	P_O	1.0	n/a	n/a	1.0	1.7519999999999998	Phon/Phon_run-02/PC006.wav	1.0	1	1.5019999999999998
177.7443	4.18	P_R	1.0	n/a	n/a	1.0	1.162	Phon/Phon_run-02/stereo_PR32.wav	1.0	1	0.9119999999999999
181.9307	4.104	P_R	1.0	n/a	n/a	1.0	1.57	Phon/Phon_run-02/stereo_PR24.wav	1.0	1	1.32
