onset	duration	trial_type	correct	window1_response	window1_RT	window2_response	window2_RT	stim_file	calculated_response	calculated_accuracy	calculated_RT
1.0907	4.2010000000000005	S_U	2.0	n/a	n/a	2.0	2.438	Sem/Sem_run-02/stereo_1SU33A0.wav	2.0	1	2.188
5.2947	3.486	S_U	2.0	n/a	n/a	2.0	1.7169999999999999	Sem/Sem_run-02/stereo_2SU85A0.wav	2.0	1	1.467
8.7817	3.8539999999999996	S_H	1.0	n/a	n/a	1.0	1.304	Sem/Sem_run-02/stereo_2SH50A0.wav	1.0	1	1.054
12.6503	3.454	S_C	1.0	1.0	0.57	n/a	n/a	Sem/Sem_run-02/ContS08.wav	1.0	1	0.57
16.1195	4.33	S_H	1.0	n/a	n/a	1.0	1.633	Sem/Sem_run-02/stereo_1SH10A0.wav	1.0	1	1.383
20.4559	3.872	S_L	1.0	n/a	n/a	1.0	1.558	Sem/Sem_run-02/stereo_2SL61A0.wav	1.0	1	1.308
24.3421	3.885	S_L	1.0	n/a	n/a	1.0	1.218	Sem/Sem_run-02/stereo_1SL23A0.wav	1.0	1	0.968
28.2293	4.2	S_U	2.0	n/a	n/a	2.0	1.1540000000000001	Sem/Sem_run-02/stereo_1SU42A0.wav	2.0	1	0.9039999999999999
32.4326	3.321	S_L	1.0	n/a	n/a	1.0	1.364	Sem/Sem_run-02/stereo_1SL16A0.wav	1.0	1	1.114
35.7684	3.59	S_C	1.0	1.0	0.522	n/a	n/a	Sem/Sem_run-02/ContS26.wav	1.0	1	0.522
39.3711	4.4	S_H	1.0	n/a	n/a	1.0	1.465	Sem/Sem_run-02/stereo_2SH60A0.wav	1.0	1	1.215
43.7745	4.311	S_L	1.0	n/a	n/a	2.0	3.077	Sem/Sem_run-02/stereo_2SL75A0.wav	2.0	0	2.827
48.0943	3.912	S_H	1.0	n/a	n/a	2.0	2.165	Sem/Sem_run-02/stereo_2SH59A0.wav	2.0	0	1.915
52.0138	4.4	S_U	2.0	n/a	n/a	1.0	2.343	Sem/Sem_run-02/stereo_2SU84A0.wav	1.0	0	2.093
56.4171	3.4210000000000003	S_U	2.0	n/a	n/a	2.0	2.136	Sem/Sem_run-02/stereo_1SU43A0.wav	2.0	1	1.8860000000000001
59.8529	3.8539999999999996	S_C	1.0	n/a	n/a	1.0	0.239	Sem/Sem_run-02/ContS02.wav	1.0	1	0.989
63.7217	4.37	S_L	1.0	n/a	n/a	1.0	1.5719999999999998	Sem/Sem_run-02/stereo_1SL19A0.wav	1.0	1	1.3219999999999998
68.0927	3.862	S_L	1.0	n/a	n/a	1.0	1.8359999999999999	Sem/Sem_run-02/stereo_1SL18A0.wav	1.0	1	1.586
71.9622	4.462	S_C	1.0	n/a	n/a	1.0	0.503	Sem/Sem_run-02/ContS22.wav	1.0	1	1.2530000000000001
76.4321	3.406	S_L	1.0	n/a	n/a	1.0	1.119	Sem/Sem_run-02/stereo_1SL21A0.wav	1.0	1	0.869
79.8515	3.355	S_U	2.0	n/a	n/a	n/a	n/a	Sem/Sem_run-02/stereo_1SU36A0.wav	n/a	0	n/a
83.2206	4.324	S_C	1.0	1.0	0.7190000000000001	n/a	n/a	Sem/Sem_run-02/ContS04.wav	1.0	1	0.7190000000000001
87.5571	4.253	S_L	1.0	n/a	n/a	1.0	1.466	Sem/Sem_run-02/stereo_1SL24A0.wav	1.0	1	1.216
91.8112	3.839	S_L	1.0	n/a	n/a	1.0	1.567	Sem/Sem_run-02/stereo_2SL70A0.wav	1.0	1	1.317
95.664	4.395	S_C	1.0	n/a	n/a	1.0	2.458	Sem/Sem_run-02/ContS14.wav	1.0	1	3.208
100.0673	3.8739999999999997	S_H	1.0	n/a	n/a	1.0	1.704	Sem/Sem_run-02/stereo_1SH09A0.wav	1.0	1	1.454
103.9534	3.75	S_U	2.0	n/a	n/a	1.0	1.7	Sem/Sem_run-02/stereo_1SU32A0.wav	1.0	0	1.45
107.7063	3.641	S_C	1.0	2.0	0.465	1.0	0.42200000000000004	Sem/Sem_run-02/ContS34.wav	2.0	0	0.465
111.359	3.338	S_U	2.0	n/a	n/a	2.0	1.847	Sem/Sem_run-02/stereo_1SU31A0.wav	2.0	1	1.597
114.7114	3.45	S_L	1.0	n/a	n/a	2.0	2.128	Sem/Sem_run-02/stereo_2SL68A0.wav	2.0	0	1.8780000000000001
118.164	3.8510000000000004	S_H	1.0	n/a	n/a	1.0	1.4069999999999998	Sem/Sem_run-02/stereo_1SH14A0.wav	1.0	1	1.1569999999999998
122.0178	3.459	S_H	1.0	n/a	n/a	1.0	1.804	Sem/Sem_run-02/stereo_1SH01A0.wav	1.0	1	1.554
125.4869	3.512	S_C	1.0	n/a	n/a	1.0	0.187	Sem/Sem_run-02/ContS16.wav	1.0	1	0.937
129.0062	3.489	S_H	1.0	n/a	n/a	1.0	1.443	Sem/Sem_run-02/stereo_1SH12A0.wav	1.0	1	1.193
132.5087	3.8489999999999998	S_U	2.0	n/a	n/a	2.0	1.9580000000000002	Sem/Sem_run-02/stereo_2SU86A0.wav	2.0	1	1.708
136.3616	3.46	S_L	1.0	n/a	n/a	1.0	1.755	Sem/Sem_run-02/stereo_1SL28A0.wav	1.0	1	1.505
139.8308	4.53	S_C	1.0	n/a	n/a	1.0	0.44299999999999995	Sem/Sem_run-02/ContS32.wav	1.0	1	1.193
144.3674	4.351	S_H	1.0	n/a	n/a	1.0	1.368	Sem/Sem_run-02/stereo_2SH52A0.wav	1.0	1	1.118
148.7216	3.48	S_H	1.0	n/a	n/a	n/a	n/a	Sem/Sem_run-02/stereo_2SH47A0.wav	n/a	0	n/a
152.2075	3.3	S_H	1.0	n/a	n/a	n/a	n/a	Sem/Sem_run-02/stereo_2SH53A0.wav	n/a	0	n/a
155.5099	3.847	S_U	2.0	n/a	n/a	2.0	2.363	Sem/Sem_run-02/stereo_1SU39A0.wav	2.0	1	2.113
159.3627	3.923	S_C	1.0	n/a	n/a	1.0	0.504	Sem/Sem_run-02/ContS10.wav	1.0	1	1.254
163.2989	3.7510000000000003	S_U	2.0	n/a	n/a	2.0	1.483	Sem/Sem_run-02/stereo_2SU80A0.wav	2.0	1	1.233
167.0527	4.2	S_L	1.0	n/a	n/a	1.0	2.62	Sem/Sem_run-02/stereo_2SL66A0.wav	1.0	1	2.37
171.2559	3.99	S_C	1.0	n/a	n/a	2.0	0.45	Sem/Sem_run-02/ContS20.wav	2.0	0	1.2
175.2588	4.041	S_C	1.0	n/a	n/a	1.0	0.695	Sem/Sem_run-02/ContS28.wav	1.0	1	1.4449999999999998
179.3117	4.2	S_U	2.0	n/a	n/a	1.0	1.685	Sem/Sem_run-02/stereo_2SU89A0.wav	1.0	0	1.435
183.5149	4.368	S_H	1.0	2.0	0.20199999999999999	1.0	1.24	Sem/Sem_run-02/stereo_2SH46A0.wav	1.0	1	0.99
