onset	duration	trial_type	correct	window1_response	window1_RT	window2_response	window2_RT	stim_file	calculated_response	calculated_accuracy	calculated_RT
1.0925	3.4539999999999997	P_R	1.0	n/a	n/a	n/a	n/a	Phon/Phon_run-01/stereo_PR01.wav	n/a	0	n/a
4.5615	3.767	P_O	1.0	n/a	n/a	1.0	1.686	Phon/Phon_run-01/PC018.wav	1.0	1	1.436
8.3317	3.391	P_O	1.0	n/a	n/a	n/a	n/a	Phon/Phon_run-01/PC009.wav	n/a	0	n/a
11.7341	4.374	P_C	1.0	n/a	n/a	2.0	0.377	Phon/Phon_run-01/ContS11.wav	2.0	0	1.127
16.1207	3.345	P_U	2.0	n/a	n/a	2.0	1.4909999999999999	Phon/Phon_run-01/PM002.wav	2.0	1	1.241
19.473	4.4510000000000005	P_C	1.0	n/a	n/a	1.0	0.469	Phon/Phon_run-01/ContS21.wav	1.0	1	1.2189999999999999
23.9275	4.382	P_O	1.0	n/a	n/a	1.0	2.235	Phon/Phon_run-01/PC005.wav	1.0	1	1.9849999999999999
28.314	3.3	P_U	2.0	n/a	n/a	2.0	1.618	Phon/Phon_run-01/stereo_PU26.wav	2.0	1	1.368
31.6165	4.324	P_C	1.0	n/a	n/a	1.0	0.040999999999999995	Phon/Phon_run-01/ContS03.wav	1.0	1	0.791
35.9529	4.378	P_R	1.0	n/a	n/a	1.0	2.949	Phon/Phon_run-01/stereo_PR29.wav	1.0	1	2.699
40.3393	3.4810000000000003	P_U	2.0	n/a	n/a	n/a	n/a	Phon/Phon_run-01/PM020.wav	n/a	0	n/a
43.8252	4.393	P_O	1.0	n/a	n/a	1.0	1.564	Phon/Phon_run-01/PC027.wav	1.0	1	1.314
48.2284	4.4	P_R	1.0	n/a	n/a	1.0	2.169	Phon/Phon_run-01/stereo_PR11.wav	1.0	1	1.919
52.6316	3.884	P_C	1.0	n/a	n/a	1.0	0.214	Phon/Phon_run-01/ContS05.wav	1.0	1	0.964
56.5186	3.891	P_U	2.0	n/a	n/a	2.0	1.676	Phon/Phon_run-01/stereo_PU28.wav	2.0	1	1.426
60.4213	4.4	P_O	1.0	n/a	n/a	1.0	1.6640000000000001	Phon/Phon_run-01/PC013.wav	1.0	1	1.414
64.8247	3.513	P_C	1.0	n/a	n/a	1.0	1.64	Phon/Phon_run-01/ContS17.wav	1.0	1	2.3899999999999997
68.3439	4.4	P_U	2.0	n/a	n/a	2.0	2.043	Phon/Phon_run-01/PM027.wav	2.0	1	1.7930000000000001
72.7471	4.4	P_O	1.0	n/a	n/a	1.0	1.4	Phon/Phon_run-01/PC021.wav	1.0	1	1.15
77.1504	4.496	P_C	1.0	n/a	n/a	1.0	0.45399999999999996	Phon/Phon_run-01/ContS29.wav	1.0	1	1.204
81.6536	3.3680000000000003	P_R	1.0	n/a	n/a	1.0	1.557	Phon/Phon_run-01/stereo_PR25.wav	1.0	1	1.307
85.0239	3.95	P_O	1.0	n/a	n/a	1.0	0.016	Phon/Phon_run-01/PC012.wav	n/a	0	n/a
88.9768	3.95	P_U	2.0	n/a	n/a	2.0	2.334	Phon/Phon_run-01/PM003.wav	2.0	1	2.084
92.9297	3.939	P_O	1.0	n/a	n/a	2.0	2.298	Phon/Phon_run-01/PC004.wav	2.0	0	2.048
96.8826	3.59	P_C	1.0	n/a	n/a	1.0	1.143	Phon/Phon_run-01/ContS27.wav	1.0	1	1.893
100.4851	4.296	P_U	2.0	n/a	n/a	2.0	1.4340000000000002	Phon/Phon_run-01/stereo_PU21.wav	2.0	1	1.1840000000000002
104.7882	3.862	P_R	1.0	n/a	n/a	1.0	1.4080000000000001	Phon/Phon_run-01/stereo_PR26.wav	1.0	1	1.158
108.6576	3.95	P_O	1.0	n/a	n/a	2.0	1.705	Phon/Phon_run-01/PC026.wav	2.0	0	1.455
112.6107	3.5	P_O	1.0	n/a	n/a	1.0	1.86	Phon/Phon_run-01/PC025.wav	1.0	1	1.61
116.1133	4.013	P_C	1.0	n/a	n/a	1.0	0.018000000000000002	Phon/Phon_run-01/ContS23.wav	1.0	1	0.768
120.1329	3.792	P_R	1.0	n/a	n/a	1.0	2.233	Phon/Phon_run-01/stereo_PR18.wav	1.0	1	1.983
123.9359	3.346	P_U	2.0	n/a	n/a	n/a	n/a	Phon/Phon_run-01/stereo_PU19.wav	2.0	1	2.411
127.2885	3.891	P_R	1.0	2.0	0.065	1.0	1.389	Phon/Phon_run-01/stereo_PR03.wav	1.0	1	1.139
131.1913	3.355	P_O	1.0	n/a	n/a	1.0	1.068	Phon/Phon_run-01/PC003.wav	1.0	1	0.8180000000000001
134.5604	3.951	P_C	1.0	n/a	n/a	1.0	0.33799999999999997	Phon/Phon_run-01/ContS15.wav	1.0	1	1.088
138.5144	3.74	P_U	2.0	n/a	n/a	2.0	1.776	Phon/Phon_run-01/stereo_PU16.wav	2.0	1	1.526
142.2671	3.95	P_R	1.0	n/a	n/a	1.0	1.258	Phon/Phon_run-01/stereo_PR10.wav	1.0	1	1.008
146.22	3.464	P_C	1.0	n/a	n/a	1.0	0.231	Phon/Phon_run-01/ContS09.wav	1.0	1	0.981
149.6892	4.275	P_R	1.0	n/a	n/a	1.0	2.013	Phon/Phon_run-01/stereo_PR04.wav	1.0	1	1.763
153.9756	3.95	P_U	2.0	n/a	n/a	2.0	1.892	Phon/Phon_run-01/PM023.wav	2.0	1	1.642
157.9284	4.4	P_U	2.0	n/a	n/a	2.0	2.883	Phon/Phon_run-01/PM001.wav	2.0	1	2.633
162.3319	3.665	P_C	1.0	n/a	n/a	1.0	0.28300000000000003	Phon/Phon_run-01/ContS35.wav	1.0	1	1.033
166.0011	3.463	P_O	1.0	n/a	n/a	n/a	n/a	Phon/Phon_run-01/PC017.wav	n/a	0	n/a
169.4703	4.332	P_R	1.0	n/a	n/a	1.0	1.9509999999999998	Phon/Phon_run-01/stereo_PR19.wav	1.0	1	1.701
173.8067	4.083	P_C	1.0	n/a	n/a	1.0	0.99	Phon/Phon_run-01/ContS33.wav	1.0	1	1.74
177.893	3.5	P_R	1.0	n/a	n/a	1.0	2.0980000000000003	Phon/Phon_run-01/stereo_PR17.wav	1.0	1	1.8480000000000003
181.3956	4.2669999999999995	P_U	2.0	n/a	n/a	2.0	1.504	Phon/Phon_run-01/PM009.wav	2.0	1	1.254
185.6658	3.4389999999999996	P_R	1.0	n/a	n/a	1.0	1.621	Phon/Phon_run-01/stereo_PR09.wav	1.0	1	1.371
