onset	duration	trial_type	correct	window1_response	window1_RT	window2_response	window2_RT	stim_file	calculated_response	calculated_accuracy	calculated_RT
1.133	6.343	SP_S	1.0	n/a	n/a	1.0	3.91	Plaus/Plaus_run-02/stereo_PC37.wav	1.0	1	1.7489999999999997
7.483	6.345	SP_W	1.0	n/a	n/a	1.0	3.888	Plaus/Plaus_run-02/stereo_PW74.wav	1.0	1	1.919
13.833	6.095	SP_C	1.0	n/a	n/a	1.0	0.508	Plaus/Plaus_run-02/CoM10d.wav	1.0	1	1.258
19.933	6.401	SP_I	2.0	n/a	n/a	2.0	2.915	Plaus/Plaus_run-02/stereo_PI56.wav	2.0	1	2.048
26.349	6.407	SP_W	1.0	n/a	n/a	1.0	3.41	Plaus/Plaus_run-02/stereo_PW39.wav	1.0	1	1.383
32.766	6.8420000000000005	SP_I	2.0	n/a	n/a	2.0	5.092	Plaus/Plaus_run-02/stereo_PI44.wav	2.0	1	2.8949999999999996
39.616	7.7	SP_C	1.0	n/a	n/a	1.0	0.146	Plaus/Plaus_run-02/CoM07e.wav	1.0	1	0.896
47.316	5.756	SP_S	1.0	n/a	n/a	1.0	2.2119999999999997	Plaus/Plaus_run-02/stereo_PC03.wav	1.0	1	1.2700000000000005
53.082	7.372000000000001	SP_S	1.0	n/a	n/a	1.0	3.925	Plaus/Plaus_run-02/stereo_PC82.wav	1.0	1	1.8699999999999997
60.466	6.095	SP_C	1.0	n/a	n/a	1.0	0.8809999999999999	Plaus/Plaus_run-02/CoM04d.wav	1.0	1	1.6309999999999998
66.565	6.303	SP_I	2.0	n/a	n/a	2.0	3.594	Plaus/Plaus_run-02/stereo_PI23.wav	2.0	1	2.6099999999999994
72.882	5.655	SP_I	2.0	n/a	n/a	2.0	3.68	Plaus/Plaus_run-02/stereo_PI22.wav	2.0	1	2.761
78.54899999999998	6.85	SP_C	1.0	n/a	n/a	1.0	2.34	Plaus/Plaus_run-02/CoM08d.wav	1.0	1	3.09
85.415	6.9179999999999975	SP_S	1.0	n/a	n/a	2.0	5.269	Plaus/Plaus_run-02/stereo_PC79.wav	2.0	0	3.0230000000000006
92.348	5.233	SP_I	2.0	n/a	n/a	2.0	3.766	Plaus/Plaus_run-02/stereo_PI21.wav	2.0	1	2.726
97.58200000000001	6.385	SP_S	1.0	n/a	n/a	1.0	3.47	Plaus/Plaus_run-02/stereo_PC46.wav	1.0	1	2.508
103.98100000000001	6.282	SP_W	1.0	n/a	n/a	1.0	2.695	Plaus/Plaus_run-02/stereo_PW64.wav	1.0	1	1.589
110.265	7.69	SP_C	1.0	n/a	n/a	1.0	1.526	Plaus/Plaus_run-02/CoM04e.wav	1.0	1	2.276
117.965	6.316	SP_I	2.0	n/a	n/a	2.0	4.3	Plaus/Plaus_run-02/stereo_PI34.wav	2.0	1	2.143
124.281	5.47	SP_C	1.0	n/a	n/a	1.0	1.055	Plaus/Plaus_run-02/CoM10b.wav	1.0	1	1.805
129.764	5.636	SP_I	2.0	n/a	n/a	1.0	3.5860000000000003	Plaus/Plaus_run-02/stereo_PI55.wav	1.0	0	2.747
135.414	7.461	SP_W	1.0	n/a	n/a	1.0	3.445	Plaus/Plaus_run-02/stereo_PW83.wav	1.0	1	1.4410000000000003
142.881	5.48	SP_C	1.0	n/a	n/a	1.0	1.98	Plaus/Plaus_run-02/CoM01b.wav	1.0	1	2.73
148.364	6.2120000000000015	SP_W	1.0	n/a	n/a	1.0	3.4389999999999996	Plaus/Plaus_run-02/stereo_PW08.wav	1.0	1	2.5780000000000003
154.58100000000005	4.694	SP_W	1.0	n/a	n/a	n/a	n/a	Plaus/Plaus_run-02/stereo_PW07.wav	n/a	0	n/a
159.281	6.197	SP_I	2.0	n/a	n/a	1.0	4.268	Plaus/Plaus_run-02/stereo_PI43.wav	1.0	0	2.208
165.48	6.1979999999999995	SP_S	1.0	n/a	n/a	1.0	3.201	Plaus/Plaus_run-02/stereo_PC59.wav	1.0	1	2.2
171.68	7.345	SP_C	1.0	n/a	n/a	1.0	1.041	Plaus/Plaus_run-02/CoM05l.wav	1.0	1	1.791
179.03	5.2429999999999986	SP_S	1.0	n/a	n/a	1.0	3.5589999999999997	Plaus/Plaus_run-02/stereo_PC02.wav	1.0	1	2.68
184.28	6.82	SP_C	1.0	n/a	n/a	1.0	0.929	Plaus/Plaus_run-02/CoM09l.wav	1.0	1	1.679
191.113	7.183	SP_I	2.0	n/a	n/a	2.0	3.6310000000000002	Plaus/Plaus_run-02/stereo_PI78.wav	2.0	1	1.7129999999999996
198.297	6.727	SP_W	1.0	n/a	n/a	n/a	n/a	Plaus/Plaus_run-02/stereo_PW40.wav	n/a	0	n/a
205.03	5.181	SP_S	1.0	n/a	n/a	1.0	3.0269999999999997	Plaus/Plaus_run-02/stereo_PC60.wav	1.0	1	1.737
210.213	7.135	SP_W	1.0	n/a	n/a	1.0	3.8810000000000002	Plaus/Plaus_run-02/stereo_PW73.wav	1.0	1	1.9489999999999994
217.363	6.76	SP_C	1.0	n/a	n/a	1.0	0.7290000000000001	Plaus/Plaus_run-02/CoM04l.wav	1.0	1	1.479
224.12900000000002	6.682	SP_I	2.0	n/a	n/a	2.0	3.929	Plaus/Plaus_run-02/stereo_PI75.wav	2.0	1	1.9329999999999998
230.813	6.002999999999999	SP_W	1.0	n/a	n/a	1.0	3.715	Plaus/Plaus_run-02/stereo_PW63.wav	1.0	1	2.5679999999999996
236.829	5.0760000000000005	SP_W	1.0	n/a	n/a	2.0	3.8080000000000003	Plaus/Plaus_run-02/stereo_PW05.wav	2.0	0	3.03
241.912	6.218	SP_S	1.0	n/a	n/a	1.0	2.935	Plaus/Plaus_run-02/stereo_PC69.wav	1.0	1	0.6980000000000004
248.146	6.569	SP_S	1.0	n/a	n/a	1.0	4.063	Plaus/Plaus_run-02/stereo_PC70.wav	1.0	1	2.187
