onset	duration	trial_type	correct	window1_response	window1_RT	window2_response	window2_RT	stim_file	calculated_response	calculated_accuracy	calculated_RT
1.0925	3.4539999999999997	P_R	1.0	n/a	n/a	1.0	1.551	Phon/Phon_run-01/stereo_PR01.wav	1.0	1	1.301
4.5615	3.767	P_O	1.0	n/a	n/a	1.0	1.32	Phon/Phon_run-01/PC018.wav	1.0	1	1.07
8.3317	3.391	P_O	1.0	n/a	n/a	2.0	1.094	Phon/Phon_run-01/PC009.wav	2.0	0	0.8440000000000001
11.7341	4.374	P_C	1.0	n/a	n/a	1.0	0.456	Phon/Phon_run-01/ContS11.wav	1.0	1	1.206
16.1207	3.345	P_U	2.0	n/a	n/a	2.0	1.754	Phon/Phon_run-01/PM002.wav	2.0	1	1.504
19.473	4.4510000000000005	P_C	1.0	n/a	n/a	1.0	0.371	Phon/Phon_run-01/ContS21.wav	1.0	1	1.121
23.9275	4.382	P_O	1.0	n/a	n/a	1.0	1.37	Phon/Phon_run-01/PC005.wav	1.0	1	1.12
28.314	3.3	P_U	2.0	n/a	n/a	2.0	1.391	Phon/Phon_run-01/stereo_PU26.wav	2.0	1	1.141
31.6165	4.324	P_C	1.0	n/a	n/a	1.0	0.877	Phon/Phon_run-01/ContS03.wav	1.0	1	1.627
35.9529	4.378	P_R	1.0	n/a	n/a	1.0	1.6380000000000001	Phon/Phon_run-01/stereo_PR29.wav	1.0	1	1.388
40.3393	3.4810000000000003	P_U	2.0	n/a	n/a	2.0	1.192	Phon/Phon_run-01/PM020.wav	2.0	1	0.942
43.8252	4.393	P_O	1.0	n/a	n/a	1.0	1.475	Phon/Phon_run-01/PC027.wav	1.0	1	1.225
48.2284	4.4	P_R	1.0	n/a	n/a	1.0	1.406	Phon/Phon_run-01/stereo_PR11.wav	1.0	1	1.156
52.6316	3.884	P_C	1.0	n/a	n/a	1.0	1.515	Phon/Phon_run-01/ContS05.wav	1.0	1	2.2649999999999997
56.5186	3.891	P_U	2.0	n/a	n/a	2.0	1.764	Phon/Phon_run-01/stereo_PU28.wav	2.0	1	1.514
60.4213	4.4	P_O	1.0	n/a	n/a	1.0	1.567	Phon/Phon_run-01/PC013.wav	1.0	1	1.317
64.8247	3.513	P_C	1.0	n/a	n/a	1.0	0.511	Phon/Phon_run-01/ContS17.wav	1.0	1	1.2610000000000001
68.3439	4.4	P_U	2.0	n/a	n/a	2.0	1.732	Phon/Phon_run-01/PM027.wav	2.0	1	1.482
72.7471	4.4	P_O	1.0	n/a	n/a	1.0	2.101	Phon/Phon_run-01/PC021.wav	1.0	1	1.851
77.1504	4.496	P_C	1.0	n/a	n/a	1.0	1.12	Phon/Phon_run-01/ContS29.wav	1.0	1	1.87
81.6536	3.3680000000000003	P_R	1.0	n/a	n/a	1.0	1.81	Phon/Phon_run-01/stereo_PR25.wav	1.0	1	1.56
85.0239	3.95	P_O	1.0	n/a	n/a	1.0	1.489	Phon/Phon_run-01/PC012.wav	1.0	1	1.239
88.9768	3.95	P_U	2.0	n/a	n/a	2.0	1.8230000000000002	Phon/Phon_run-01/PM003.wav	2.0	1	1.573
92.9297	3.939	P_O	1.0	n/a	n/a	1.0	1.369	Phon/Phon_run-01/PC004.wav	1.0	1	1.119
96.8826	3.59	P_C	1.0	n/a	n/a	1.0	0.045	Phon/Phon_run-01/ContS27.wav	1.0	1	0.795
100.4851	4.296	P_U	2.0	n/a	n/a	2.0	1.4980000000000002	Phon/Phon_run-01/stereo_PU21.wav	2.0	1	1.2480000000000002
104.7882	3.862	P_R	1.0	n/a	n/a	1.0	1.71	Phon/Phon_run-01/stereo_PR26.wav	1.0	1	1.46
108.6576	3.95	P_O	1.0	n/a	n/a	2.0	2.031	Phon/Phon_run-01/PC026.wav	2.0	0	1.7810000000000001
112.6107	3.5	P_O	1.0	n/a	n/a	1.0	1.531	Phon/Phon_run-01/PC025.wav	1.0	1	1.281
116.1133	4.013	P_C	1.0	n/a	n/a	1.0	0.306	Phon/Phon_run-01/ContS23.wav	1.0	1	1.056
120.1329	3.792	P_R	1.0	n/a	n/a	1.0	1.9569999999999999	Phon/Phon_run-01/stereo_PR18.wav	1.0	1	1.707
123.9359	3.346	P_U	2.0	n/a	n/a	2.0	1.34	Phon/Phon_run-01/stereo_PU19.wav	2.0	1	1.09
127.2885	3.891	P_R	1.0	n/a	n/a	1.0	1.185	Phon/Phon_run-01/stereo_PR03.wav	1.0	1	0.935
131.1913	3.355	P_O	1.0	n/a	n/a	1.0	1.444	Phon/Phon_run-01/PC003.wav	1.0	1	1.194
134.5604	3.951	P_C	1.0	n/a	n/a	1.0	0.317	Phon/Phon_run-01/ContS15.wav	1.0	1	1.067
138.5144	3.74	P_U	2.0	n/a	n/a	2.0	1.31	Phon/Phon_run-01/stereo_PU16.wav	2.0	1	1.06
142.2671	3.95	P_R	1.0	n/a	n/a	1.0	1.579	Phon/Phon_run-01/stereo_PR10.wav	1.0	1	1.329
146.22	3.464	P_C	1.0	n/a	n/a	1.0	1.389	Phon/Phon_run-01/ContS09.wav	1.0	1	2.1390000000000002
149.6892	4.275	P_R	1.0	n/a	n/a	1.0	1.564	Phon/Phon_run-01/stereo_PR04.wav	1.0	1	1.314
153.9756	3.95	P_U	2.0	n/a	n/a	2.0	2.439	Phon/Phon_run-01/PM023.wav	2.0	1	2.189
157.9284	4.4	P_U	2.0	n/a	n/a	2.0	1.347	Phon/Phon_run-01/PM001.wav	2.0	1	1.097
162.3319	3.665	P_C	1.0	n/a	n/a	1.0	0.441	Phon/Phon_run-01/ContS35.wav	1.0	1	1.191
166.0011	3.463	P_O	1.0	n/a	n/a	n/a	n/a	Phon/Phon_run-01/PC017.wav	n/a	0	n/a
169.4703	4.332	P_R	1.0	n/a	n/a	1.0	1.5130000000000001	Phon/Phon_run-01/stereo_PR19.wav	1.0	1	1.263
173.8067	4.083	P_C	1.0	n/a	n/a	1.0	0.49200000000000005	Phon/Phon_run-01/ContS33.wav	1.0	1	1.242
177.893	3.5	P_R	1.0	n/a	n/a	1.0	1.3980000000000001	Phon/Phon_run-01/stereo_PR17.wav	1.0	1	1.148
181.3956	4.2669999999999995	P_U	2.0	n/a	n/a	2.0	1.609	Phon/Phon_run-01/PM009.wav	2.0	1	1.359
185.6658	3.4389999999999996	P_R	1.0	n/a	n/a	1.0	1.639	Phon/Phon_run-01/stereo_PR09.wav	1.0	1	1.389
