onset	duration	trial_type	correct	window1_response	window1_RT	window2_response	window2_RT	stim_file	calculated_response	calculated_accuracy	calculated_RT
1.0924	3.5	P_R	1.0	n/a	n/a	1.0	1.598	Phon/Phon_run-02/stereo_PR20.wav	1.0	1	1.348
4.595	4.235	P_O	1.0	n/a	n/a	1.0	1.33	Phon/Phon_run-02/PC034.wav	1.0	1	1.08
8.8325	3.375	P_R	1.0	n/a	n/a	1.0	1.041	Phon/Phon_run-02/stereo_PR13.wav	1.0	1	0.7909999999999999
12.2183	3.474	P_C	1.0	n/a	n/a	1.0	0.053	Phon/Phon_run-02/ContS12.wav	1.0	1	0.803
15.7041	3.875	P_U	2.0	n/a	n/a	2.0	1.33	Phon/Phon_run-02/PM025.wav	2.0	1	1.08
19.5903	3.726	P_R	1.0	n/a	n/a	1.0	1.214	Phon/Phon_run-02/stereo_PR22.wav	1.0	1	0.964
23.3263	3.451	P_O	1.0	n/a	n/a	1.0	1.743	Phon/Phon_run-02/PC014.wav	1.0	1	1.493
26.7799	3.779	P_C	1.0	n/a	n/a	1.0	0.17800000000000002	Phon/Phon_run-02/ContS02.wav	1.0	1	0.928
30.566	3.821	P_U	2.0	n/a	n/a	1.0	1.585	Phon/Phon_run-02/stereo_PU18.wav	1.0	0	1.335
34.402	3.49	P_U	2.0	n/a	n/a	1.0	1.9709999999999999	Phon/Phon_run-02/stereo_PU12.wav	1.0	0	1.721
37.9046	4.38	P_C	1.0	n/a	n/a	1.0	0.146	Phon/Phon_run-02/ContS32.wav	1.0	1	0.896
42.291000000000004	4.0969999999999995	P_R	1.0	n/a	n/a	1.0	1.1909999999999998	Phon/Phon_run-02/stereo_PR16.wav	1.0	1	0.9409999999999998
46.394	3.5	P_O	1.0	n/a	n/a	1.0	0.9790000000000001	Phon/Phon_run-02/PC022.wav	1.0	1	0.729
49.8966	4.0760000000000005	P_R	1.0	n/a	n/a	1.0	1.186	Phon/Phon_run-02/stereo_PR08.wav	1.0	1	0.9359999999999999
53.983000000000004	3.5	P_O	1.0	n/a	n/a	n/a	n/a	Phon/Phon_run-02/PC028.wav	1.0	1	2.887
57.4856	3.5	P_U	2.0	1.0	0.387	1.0	1.124	Phon/Phon_run-02/stereo_PU27.wav	1.0	0	0.8740000000000001
60.9881	3.819	P_C	1.0	n/a	n/a	1.0	0.775	Phon/Phon_run-02/ContS06.wav	1.0	1	1.525
64.8086	4.25	P_O	1.0	n/a	n/a	1.0	1.314	Phon/Phon_run-02/PC031.wav	1.0	1	1.064
69.062	3.662	P_C	1.0	n/a	n/a	1.0	0.26899999999999996	Phon/Phon_run-02/ContS36.wav	1.0	1	1.0190000000000001
72.7312	3.823	P_O	1.0	n/a	n/a	1.0	1.275	Phon/Phon_run-02/PC023.wav	1.0	1	1.025
76.5674	4.323	P_C	1.0	n/a	n/a	1.0	0.115	Phon/Phon_run-02/ContS24.wav	1.0	1	0.865
80.9038	3.865	P_U	2.0	n/a	n/a	1.0	1.3019999999999998	Phon/Phon_run-02/PM004.wav	1.0	0	1.0519999999999998
84.7733	3.875	P_O	1.0	n/a	n/a	1.0	1.28	Phon/Phon_run-02/PC007.wav	1.0	1	1.03
88.6594	4.25	P_U	2.0	n/a	n/a	1.0	1.105	Phon/Phon_run-02/PM011.wav	1.0	0	0.855
92.9126	4.362	P_C	1.0	n/a	n/a	1.0	0.155	Phon/Phon_run-02/ContS30.wav	1.0	1	0.905
97.2825	3.875	P_O	1.0	n/a	n/a	1.0	1.21	Phon/Phon_run-02/PC030.wav	1.0	1	0.96
101.1687	3.3360000000000003	P_R	1.0	n/a	n/a	1.0	1.3559999999999999	Phon/Phon_run-02/stereo_PR05.wav	1.0	1	1.106
104.5077	4.113	P_U	2.0	n/a	n/a	1.0	1.103	Phon/Phon_run-02/stereo_PU01.wav	1.0	0	0.853
108.6273	4.1739999999999995	P_U	2.0	n/a	n/a	1.0	2.443	Phon/Phon_run-02/PM029.wav	1.0	0	2.193
112.8137	3.4539999999999997	P_C	1.0	n/a	n/a	1.0	0.221	Phon/Phon_run-02/ContS08.wav	1.0	1	0.971
116.2828	3.446	P_R	1.0	n/a	n/a	1.0	1.73	Phon/Phon_run-02/stereo_PR30.wav	1.0	1	1.48
119.7352	3.85	P_R	1.0	n/a	n/a	1.0	1.099	Phon/Phon_run-02/stereo_PR07.wav	1.0	1	0.849
123.588	3.438	P_U	2.0	n/a	n/a	1.0	1.157	Phon/Phon_run-02/stereo_PU02.wav	1.0	0	0.907
127.0406	3.915	P_C	1.0	n/a	n/a	1.0	0.9079999999999999	Phon/Phon_run-02/ContS20.wav	1.0	1	1.658
130.9601	3.487	P_U	2.0	n/a	n/a	1.0	0.956	Phon/Phon_run-02/PM021.wav	1.0	0	0.706
134.46200000000002	3.965	P_C	1.0	n/a	n/a	1.0	0.278	Phon/Phon_run-02/ContS26.wav	1.0	1	1.028
138.4315	3.792	P_R	1.0	n/a	n/a	1.0	1.176	Phon/Phon_run-02/stereo_PR31.wav	1.0	1	0.9259999999999999
142.2343	4.135	P_O	1.0	n/a	n/a	1.0	1.151	Phon/Phon_run-02/PC024.wav	1.0	1	0.901
146.3717	3.875	P_U	2.0	n/a	n/a	1.0	1.6980000000000002	Phon/Phon_run-02/PM010.wav	1.0	0	1.4480000000000002
150.2579	3.875	P_O	1.0	n/a	n/a	1.0	1.1	Phon/Phon_run-02/PC015.wav	1.0	1	0.8500000000000001
154.144	4.245	P_C	1.0	n/a	n/a	1.0	0.067	Phon/Phon_run-02/ContS14.wav	1.0	1	0.817
158.3971	3.854	P_R	1.0	n/a	n/a	1.0	1.159	Phon/Phon_run-02/stereo_PR14.wav	1.0	1	0.909
162.2662	4.239	P_O	1.0	n/a	n/a	1.0	1.122	Phon/Phon_run-02/PC008.wav	1.0	1	0.8720000000000001
166.5192	4.25	P_U	2.0	n/a	n/a	2.0	1.369	Phon/Phon_run-02/stereo_PU11.wav	2.0	1	1.119
170.7726	3.523	P_C	1.0	n/a	n/a	1.0	0.249	Phon/Phon_run-02/ContS18.wav	1.0	1	0.999
174.3085	3.429	P_O	1.0	n/a	n/a	1.0	1.011	Phon/Phon_run-02/PC006.wav	1.0	1	0.7609999999999999
177.7443	4.18	P_R	1.0	n/a	n/a	1.0	1.249	Phon/Phon_run-02/stereo_PR32.wav	1.0	1	0.9990000000000001
181.9307	4.104	P_R	1.0	n/a	n/a	1.0	1.2770000000000001	Phon/Phon_run-02/stereo_PR24.wav	1.0	1	1.027
