onset	duration	trial_type	correct	window1_response	window1_RT	window2_response	window2_RT	stim_file	calculated_response	calculated_accuracy	calculated_RT
1.0964	7.034	SP_W	1.0	n/a	n/a	1.0	3.741	Plaus/Plaus_run-01/stereo_PW85.wav	1.0	1	1.5939999999999999
8.1359	5.641	SP_I	2.0	n/a	n/a	2.0	2.149	Plaus/Plaus_run-01/stereo_PI11.wav	2.0	1	1.2289999999999999
13.79	6.77	SP_C	1.0	n/a	n/a	1.0	2.969	Plaus/Plaus_run-01/CoM08b.wav	1.0	1	3.719
20.5628	7.327000000000001	SP_W	1.0	n/a	n/a	1.0	3.12	Plaus/Plaus_run-01/stereo_PW72.wav	1.0	1	1.1400000000000001
27.9014	6.145	SP_C	1.0	n/a	n/a	1.0	2.875	Plaus/Plaus_run-01/CoM05d.wav	1.0	1	3.625
34.0559	5.181	SP_I	2.0	n/a	n/a	2.0	2.823	Plaus/Plaus_run-01/stereo_PI65.wav	2.0	1	1.8809999999999998
39.243	5.092	SP_S	1.0	n/a	n/a	2.0	2.101	Plaus/Plaus_run-01/stereo_PC13.wav	2.0	0	1.0379999999999998
44.3468	7.355	SP_C	1.0	n/a	n/a	1.0	3.865	Plaus/Plaus_run-01/CoM06l.wav	1.0	1	4.615
51.7032	7.47	SP_I	2.0	n/a	n/a	2.0	3.654	Plaus/Plaus_run-01/stereo_PI90.wav	2.0	1	1.483
59.1764	7.399	SP_S	1.0	n/a	n/a	1.0	3.3939999999999997	Plaus/Plaus_run-01/stereo_PC35.wav	1.0	1	1.1270000000000002
66.5818	5.685	SP_S	1.0	n/a	n/a	1.0	2.352	Plaus/Plaus_run-01/stereo_PC47.wav	1.0	1	1.3429999999999997
72.2704	5.669	SP_W	1.0	n/a	n/a	2.0	2.5180000000000002	Plaus/Plaus_run-01/stereo_PW19.wav	2.0	0	1.5119999999999998
77.9423	7.9	SP_C	1.0	n/a	n/a	1.0	1.9469999999999998	Plaus/Plaus_run-01/CoM03l.wav	1.0	1	2.697
85.8483	5.145	SP_I	2.0	n/a	n/a	2.0	2.6639999999999997	Plaus/Plaus_run-01/stereo_PI09.wav	2.0	1	1.6560000000000004
91.0021	6.9170000000000025	SP_W	1.0	n/a	n/a	1.0	3.261	Plaus/Plaus_run-01/stereo_PW30.wav	1.0	1	1.141
97.9243	5.738	SP_S	1.0	n/a	n/a	2.0	2.8689999999999998	Plaus/Plaus_run-01/stereo_PC14.wav	2.0	0	1.6980000000000002
103.6662	6.276	SP_W	1.0	n/a	n/a	1.0	2.602	Plaus/Plaus_run-01/stereo_PW50.wav	1.0	1	1.7799999999999998
109.954	5.49	SP_C	1.0	n/a	n/a	1.0	3.366	Plaus/Plaus_run-01/CoM03d.wav	1.0	1	4.116
115.458	5.7	SP_I	2.0	n/a	n/a	2.0	2.451	Plaus/Plaus_run-01/stereo_PI67.wav	2.0	1	1.56
121.1625	7.237	SP_S	1.0	n/a	n/a	1.0	3.553	Plaus/Plaus_run-01/stereo_PC68.wav	1.0	1	1.5869999999999997
128.4022	6.49	SP_C	1.0	n/a	n/a	1.0	3.111	Plaus/Plaus_run-01/CoM03b.wav	1.0	1	3.861
134.9065	6.25	SP_W	1.0	n/a	n/a	1.0	2.7060000000000004	Plaus/Plaus_run-01/stereo_PW61.wav	1.0	1	1.7260000000000004
141.161	6.952999999999999	SP_I	2.0	n/a	n/a	2.0	3.841	Plaus/Plaus_run-01/stereo_PI32.wav	2.0	1	1.6760000000000002
148.1173	7.085	SP_C	1.0	n/a	n/a	1.0	4.118	Plaus/Plaus_run-01/CoM02e.wav	1.0	1	4.868
155.2068	6.3610000000000015	SP_S	1.0	n/a	n/a	1.0	3.455	Plaus/Plaus_run-01/stereo_PC24.wav	1.0	1	1.197
161.5781	5.1110000000000015	SP_W	1.0	n/a	n/a	1.0	2.588	Plaus/Plaus_run-01/stereo_PW53.wav	1.0	1	1.5740000000000003
166.6985	6.2860000000000005	SP_I	2.0	n/a	n/a	1.0	3.8360000000000003	Plaus/Plaus_run-01/stereo_PI42.wav	1.0	0	1.6400000000000001
172.9876	6.577000000000001	SP_S	1.0	n/a	n/a	1.0	2.595	Plaus/Plaus_run-01/stereo_PC57.wav	1.0	1	1.4000000000000001
179.5757	5.273	SP_W	1.0	n/a	n/a	1.0	2.229	Plaus/Plaus_run-01/stereo_PW18.wav	1.0	1	1.062
184.8629	5.77	SP_C	1.0	n/a	n/a	1.0	1.5219999999999998	Plaus/Plaus_run-01/CoM09b.wav	1.0	1	2.272
190.6348	6.731	SP_S	1.0	n/a	n/a	1.0	3.502	Plaus/Plaus_run-01/stereo_PC26.wav	1.0	1	1.4019999999999997
197.3731	7.212999999999999	SP_I	2.0	n/a	n/a	2.0	3.5180000000000002	Plaus/Plaus_run-01/stereo_PI33.wav	2.0	1	1.5349999999999997
204.595	5.181	SP_S	1.0	n/a	n/a	1.0	2.05	Plaus/Plaus_run-01/stereo_PC01.wav	1.0	1	1.109
209.7821	6.238	SP_S	1.0	n/a	n/a	1.0	3.46	Plaus/Plaus_run-01/stereo_PC36.wav	1.0	1	1.4139999999999997
216.0211	7.73	SP_C	1.0	n/a	n/a	n/a	n/a	Plaus/Plaus_run-01/CoM10e.wav	n/a	0	n/a
223.7601	6.843	SP_I	2.0	n/a	n/a	1.0	4.6739999999999995	Plaus/Plaus_run-01/stereo_PI45.wav	1.0	0	2.5470000000000006
230.615	6.101	SP_W	1.0	n/a	n/a	1.0	3.272	Plaus/Plaus_run-01/stereo_PW28.wav	1.0	1	1.3399999999999994
236.7206	7.419	SP_W	1.0	n/a	n/a	1.0	3.062	Plaus/Plaus_run-01/stereo_PW86.wav	1.0	1	1.0260000000000002
244.1438	6.54	SP_C	1.0	n/a	n/a	1.0	3.792	Plaus/Plaus_run-01/CoM05e.wav	1.0	1	4.542
250.6981	6.247000000000001	SP_I	2.0	n/a	n/a	2.0	2.392	Plaus/Plaus_run-01/stereo_PI12.wav	2.0	1	1.521
