onset	duration	trial_type	correct	window1_response	window1_RT	window2_response	window2_RT	stim_file	calculated_response	calculated_accuracy	calculated_RT
1.0924	3.5	P_R	1.0	n/a	n/a	1.0	1.396	Phon/Phon_run-02/stereo_PR20.wav	1.0	1	1.146
4.595	4.235	P_O	1.0	n/a	n/a	1.0	1.7309999999999999	Phon/Phon_run-02/PC034.wav	1.0	1	1.481
8.8325	3.375	P_R	1.0	n/a	n/a	1.0	1.3090000000000002	Phon/Phon_run-02/stereo_PR13.wav	1.0	1	1.0590000000000002
12.2183	3.474	P_C	1.0	n/a	n/a	1.0	0.366	Phon/Phon_run-02/ContS12.wav	1.0	1	1.116
15.7041	3.875	P_U	2.0	n/a	n/a	2.0	1.9680000000000002	Phon/Phon_run-02/PM025.wav	2.0	1	1.718
19.5903	3.726	P_R	1.0	n/a	n/a	1.0	1.436	Phon/Phon_run-02/stereo_PR22.wav	1.0	1	1.186
23.3263	3.451	P_O	1.0	n/a	n/a	1.0	1.318	Phon/Phon_run-02/PC014.wav	1.0	1	1.068
26.7799	3.779	P_C	1.0	n/a	n/a	1.0	0.387	Phon/Phon_run-02/ContS02.wav	1.0	1	1.137
30.566	3.821	P_U	2.0	n/a	n/a	n/a	n/a	Phon/Phon_run-02/stereo_PU18.wav	n/a	0	n/a
34.402	3.49	P_U	2.0	n/a	n/a	n/a	n/a	Phon/Phon_run-02/stereo_PU12.wav	n/a	0	n/a
37.9046	4.38	P_C	1.0	n/a	n/a	1.0	0.6509999999999999	Phon/Phon_run-02/ContS32.wav	1.0	1	1.4009999999999998
42.291000000000004	4.0969999999999995	P_R	1.0	n/a	n/a	1.0	1.19	Phon/Phon_run-02/stereo_PR16.wav	1.0	1	0.94
46.394	3.5	P_O	1.0	n/a	n/a	n/a	n/a	Phon/Phon_run-02/PC022.wav	n/a	0	n/a
49.8966	4.0760000000000005	P_R	1.0	n/a	n/a	1.0	1.3840000000000001	Phon/Phon_run-02/stereo_PR08.wav	1.0	1	1.134
53.983000000000004	3.5	P_O	1.0	n/a	n/a	n/a	n/a	Phon/Phon_run-02/PC028.wav	n/a	0	n/a
57.4856	3.5	P_U	2.0	n/a	n/a	n/a	n/a	Phon/Phon_run-02/stereo_PU27.wav	n/a	0	n/a
60.9881	3.819	P_C	1.0	n/a	n/a	1.0	0.23399999999999999	Phon/Phon_run-02/ContS06.wav	1.0	1	0.984
64.8086	4.25	P_O	1.0	n/a	n/a	1.0	1.614	Phon/Phon_run-02/PC031.wav	1.0	1	1.364
69.062	3.662	P_C	1.0	n/a	n/a	1.0	0.193	Phon/Phon_run-02/ContS36.wav	1.0	1	0.9430000000000001
72.7312	3.823	P_O	1.0	n/a	n/a	1.0	2.0469999999999997	Phon/Phon_run-02/PC023.wav	1.0	1	1.7970000000000002
76.5674	4.323	P_C	1.0	n/a	n/a	1.0	0.27	Phon/Phon_run-02/ContS24.wav	1.0	1	1.02
80.9038	3.865	P_U	2.0	n/a	n/a	2.0	1.76	Phon/Phon_run-02/PM004.wav	2.0	1	1.51
84.7733	3.875	P_O	1.0	n/a	n/a	1.0	1.375	Phon/Phon_run-02/PC007.wav	1.0	1	1.125
88.6594	4.25	P_U	2.0	n/a	n/a	2.0	1.5090000000000001	Phon/Phon_run-02/PM011.wav	2.0	1	1.259
92.9126	4.362	P_C	1.0	n/a	n/a	1.0	0.836	Phon/Phon_run-02/ContS30.wav	1.0	1	1.5859999999999999
97.2825	3.875	P_O	1.0	n/a	n/a	n/a	n/a	Phon/Phon_run-02/PC030.wav	1.0	1	2.888
101.1687	3.3360000000000003	P_R	1.0	1.0	0.013000000000000001	1.0	1.364	Phon/Phon_run-02/stereo_PR05.wav	1.0	1	1.114
104.5077	4.113	P_U	2.0	n/a	n/a	2.0	1.66	Phon/Phon_run-02/stereo_PU01.wav	2.0	1	1.41
108.6273	4.1739999999999995	P_U	2.0	n/a	n/a	2.0	2.3280000000000003	Phon/Phon_run-02/PM029.wav	2.0	1	2.0780000000000003
112.8137	3.4539999999999997	P_C	1.0	n/a	n/a	1.0	1.232	Phon/Phon_run-02/ContS08.wav	1.0	1	1.982
116.2828	3.446	P_R	1.0	n/a	n/a	1.0	1.213	Phon/Phon_run-02/stereo_PR30.wav	1.0	1	0.9630000000000001
119.7352	3.85	P_R	1.0	n/a	n/a	1.0	1.405	Phon/Phon_run-02/stereo_PR07.wav	1.0	1	1.155
123.588	3.438	P_U	2.0	n/a	n/a	2.0	1.703	Phon/Phon_run-02/stereo_PU02.wav	2.0	1	1.453
127.0406	3.915	P_C	1.0	n/a	n/a	1.0	0.284	Phon/Phon_run-02/ContS20.wav	1.0	1	1.034
130.9601	3.487	P_U	2.0	n/a	n/a	n/a	n/a	Phon/Phon_run-02/PM021.wav	n/a	0	n/a
134.46200000000002	3.965	P_C	1.0	2.0	0.26899999999999996	1.0	0.682	Phon/Phon_run-02/ContS26.wav	2.0	0	0.269
138.4315	3.792	P_R	1.0	n/a	n/a	n/a	n/a	Phon/Phon_run-02/stereo_PR31.wav	n/a	0	n/a
142.2343	4.135	P_O	1.0	n/a	n/a	1.0	1.5519999999999998	Phon/Phon_run-02/PC024.wav	1.0	1	1.3019999999999998
146.3717	3.875	P_U	2.0	n/a	n/a	n/a	n/a	Phon/Phon_run-02/PM010.wav	n/a	0	n/a
150.2579	3.875	P_O	1.0	n/a	n/a	1.0	1.4969999999999999	Phon/Phon_run-02/PC015.wav	1.0	1	1.247
154.144	4.245	P_C	1.0	n/a	n/a	1.0	2.188	Phon/Phon_run-02/ContS14.wav	1.0	1	2.938
158.3971	3.854	P_R	1.0	n/a	n/a	n/a	n/a	Phon/Phon_run-02/stereo_PR14.wav	n/a	0	n/a
162.2662	4.239	P_O	1.0	n/a	n/a	1.0	1.247	Phon/Phon_run-02/PC008.wav	1.0	1	0.9970000000000001
166.5192	4.25	P_U	2.0	n/a	n/a	2.0	2.8569999999999998	Phon/Phon_run-02/stereo_PU11.wav	2.0	1	2.607
170.7726	3.523	P_C	1.0	1.0	0.65	n/a	n/a	Phon/Phon_run-02/ContS18.wav	1.0	1	0.65
174.3085	3.429	P_O	1.0	n/a	n/a	1.0	2.095	Phon/Phon_run-02/PC006.wav	1.0	1	1.8450000000000002
177.7443	4.18	P_R	1.0	n/a	n/a	1.0	2.469	Phon/Phon_run-02/stereo_PR32.wav	1.0	1	2.219
181.9307	4.104	P_R	1.0	n/a	n/a	1.0	1.275	Phon/Phon_run-02/stereo_PR24.wav	1.0	1	1.025
