onset	duration	trial_type	correct	window1_response	window1_RT	window2_response	window2_RT	stim_file	calculated_response	calculated_accuracy	calculated_RT
1.0915	6.895	G_F	2.0	n/a	n/a	1.0	5.005	Gram/Gram_run-01/stereo_2MF57U2.wav	1.0	0	5.755
7.9964	7.175	G_F	2.0	n/a	n/a	2.0	3.7460000000000004	Gram/Gram_run-01/stereo_1MF15U3.wav	2.0	1	4.496
15.1851	6.5070000000000014	G_G	1.0	n/a	n/a	2.0	3.437	Gram/Gram_run-01/stereo_1MF11G2.wav	2.0	0	2.2569999999999997
21.7065	6.505	G_C	1.0	n/a	n/a	1.0	0.54	Gram/Gram_run-01/CoM09d.wav	1.0	1	1.29
28.2123	6.9479999999999995	G_F	2.0	n/a	n/a	2.0	4.883	Gram/Gram_run-01/stereo_2MF68U4.wav	2.0	1	4.157
35.1675	5.541	G_P	2.0	n/a	n/a	2.0	3.8789999999999996	Gram/Gram_run-01/stereo_1MP37U3.wav	2.0	1	2.844
40.7217	5.9479999999999995	G_G	1.0	n/a	n/a	1.0	4.525	Gram/Gram_run-01/stereo_2MF50G1.wav	1.0	1	2.4300000000000006
46.6761	6.013	G_F	2.0	n/a	n/a	2.0	4.775	Gram/Gram_run-01/stereo_1MF05U1.wav	2.0	1	4.173
52.6972	7.87	G_C	1.0	n/a	n/a	1.0	2.419	Gram/Gram_run-01/CoM01l.wav	1.0	1	3.169
60.5705	6.4979999999999976	G_G	1.0	n/a	n/a	1.0	4.546	Gram/Gram_run-01/stereo_1MF23G4.wav	1.0	1	2.365
67.0753	6.184	G_F	2.0	n/a	n/a	2.0	3.159	Gram/Gram_run-01/stereo_2MF55U2.wav	2.0	1	3.909
73.264	6.83	G_C	1.0	n/a	n/a	1.0	1.3719999999999999	Gram/Gram_run-01/CoM10l.wav	1.0	1	2.122
80.1023	7.505	G_G	1.0	n/a	n/a	1.0	5.558	Gram/Gram_run-01/stereo_2MP96G4.wav	1.0	1	3.1630000000000003
87.6086	7.1370000000000005	G_G	1.0	n/a	n/a	1.0	5.102	Gram/Gram_run-01/stereo_1MP47G4.wav	1.0	1	2.6350000000000007
94.74799999999999	6.694	G_F	2.0	n/a	n/a	2.0	2.9939999999999998	Gram/Gram_run-01/stereo_2MF61U3.wav	2.0	1	3.744
101.4529	5.39	G_C	1.0	n/a	n/a	1.0	0.7509999999999999	Gram/Gram_run-01/CoM01d.wav	1.0	1	1.501
106.8569	6.5760000000000005	G_G	1.0	n/a	n/a	1.0	3.861	Gram/Gram_run-01/stereo_1MP35G2.wav	1.0	1	2.857
113.4451	5.3389999999999995	G_F	2.0	n/a	n/a	n/a	n/a	Gram/Gram_run-01/stereo_2MF69U4.wav	n/a	0	n/a
118.7989	7.94	G_C	1.0	n/a	n/a	1.0	1.8840000000000001	Gram/Gram_run-01/CoM08l.wav	1.0	1	2.634
126.7476	6.006	G_P	2.0	n/a	n/a	2.0	4.021	Gram/Gram_run-01/stereo_1MP26U1.wav	2.0	1	2.045
132.7683	8.422	G_F	2.0	n/a	n/a	2.0	4.696000000000001	Gram/Gram_run-01/stereo_1MF06U1.wav	2.0	1	4.101000000000001
141.1919	7.885	G_P	2.0	n/a	n/a	2.0	3.227	Gram/Gram_run-01/stereo_2MP81U2.wav	2.0	1	2.3419999999999996
149.082	6.127000000000002	G_G	1.0	n/a	n/a	n/a	n/a	Gram/Gram_run-01/stereo_2MP83G2.wav	n/a	0	n/a
155.2198	5.765	G_C	1.0	n/a	n/a	1.0	2.99	Gram/Gram_run-01/CoM02b.wav	1.0	1	3.74
160.9908	6.706	G_P	2.0	n/a	n/a	2.0	4.749	Gram/Gram_run-01/stereo_2MP93U4.wav	2.0	1	2.349
167.7098	6.61	G_P	2.0	n/a	n/a	2.0	4.525	Gram/Gram_run-01/stereo_1MP28U1.wav	2.0	1	2.410000000000001
174.3313	6.63	G_C	1.0	n/a	n/a	1.0	0.8759999999999999	Gram/Gram_run-01/CoM04b.wav	1.0	1	1.626
180.9695	5.665	G_P	2.0	n/a	n/a	n/a	n/a	Gram/Gram_run-01/stereo_1MP27U1.wav	2.0	1	3.1880000000000006
186.6404	7.55	G_G	1.0	2.0	0.275	1.0	4.367	Gram/Gram_run-01/stereo_2MP77G1.wav	1.0	1	2.268
194.1961	6.51	G_C	1.0	n/a	n/a	1.0	0.976	Gram/Gram_run-01/CoM03e.wav	1.0	1	1.726
200.7177	6.98	G_P	2.0	n/a	n/a	2.0	4.261	Gram/Gram_run-01/stereo_2MP92U4.wav	2.0	1	1.912
207.7062	7.047999999999999	G_G	1.0	n/a	n/a	2.0	2.7430000000000003	Gram/Gram_run-01/stereo_1MF12G2.wav	2.0	0	1.7090000000000003
214.7613	5.574	G_F	2.0	n/a	n/a	1.0	4.106	Gram/Gram_run-01/stereo_1MF04U1.wav	1.0	0	3.518
220.3488	5.67	G_C	1.0	n/a	n/a	1.0	3.963	Gram/Gram_run-01/CoM07d.wav	1.0	1	4.713
226.0205	6.6160000000000005	G_P	2.0	n/a	n/a	2.0	2.997	Gram/Gram_run-01/stereo_1MP39U3.wav	2.0	1	1.9929999999999999
232.6421	5.695	G_P	2.0	n/a	n/a	2.0	3.253	Gram/Gram_run-01/stereo_2MP82U2.wav	2.0	1	2.3320000000000003
238.3464	6.627000000000002	G_F	2.0	n/a	n/a	n/a	n/a	Gram/Gram_run-01/stereo_1MF13U3.wav	n/a	0	n/a
244.9846	7.145	G_C	1.0	n/a	n/a	1.0	1.4769999999999999	Gram/Gram_run-01/CoM08e.wav	1.0	1	2.2270000000000003
252.1398	6.805	G_G	1.0	n/a	n/a	n/a	n/a	Gram/Gram_run-01/stereo_1MP41G3.wav	n/a	0	n/a
258.9458	7.519	G_P	2.0	n/a	n/a	2.0	3.252	Gram/Gram_run-01/stereo_1MP38U3.wav	2.0	1	2.013
