onset	duration	trial_type	correct	window1_response	window1_RT	window2_response	window2_RT	stim_file	calculated_response	calculated_accuracy	calculated_RT
1.0924	3.5	P_R	1.0	n/a	n/a	1.0	1.5619999999999998	Phon/Phon_run-02/stereo_PR20.wav	1.0	1	1.3119999999999998
4.595	4.235	P_O	1.0	n/a	n/a	2.0	1.449	Phon/Phon_run-02/PC034.wav	2.0	0	1.199
8.8325	3.375	P_R	1.0	n/a	n/a	1.0	1.911	Phon/Phon_run-02/stereo_PR13.wav	1.0	1	1.661
12.2183	3.474	P_C	1.0	n/a	n/a	1.0	1.8	Phon/Phon_run-02/ContS12.wav	1.0	1	2.55
15.7041	3.875	P_U	2.0	n/a	n/a	2.0	1.234	Phon/Phon_run-02/PM025.wav	2.0	1	0.984
19.5903	3.726	P_R	1.0	n/a	n/a	1.0	1.344	Phon/Phon_run-02/stereo_PR22.wav	1.0	1	1.094
23.3263	3.451	P_O	1.0	n/a	n/a	2.0	1.716	Phon/Phon_run-02/PC014.wav	2.0	0	1.466
26.7799	3.779	P_C	1.0	n/a	n/a	1.0	0.451	Phon/Phon_run-02/ContS02.wav	1.0	1	1.201
30.566	3.821	P_U	2.0	n/a	n/a	2.0	1.48	Phon/Phon_run-02/stereo_PU18.wav	2.0	1	1.23
34.402	3.49	P_U	2.0	n/a	n/a	2.0	1.567	Phon/Phon_run-02/stereo_PU12.wav	2.0	1	1.317
37.9046	4.38	P_C	1.0	n/a	n/a	1.0	0.6759999999999999	Phon/Phon_run-02/ContS32.wav	1.0	1	1.426
42.291000000000004	4.0969999999999995	P_R	1.0	n/a	n/a	1.0	1.178	Phon/Phon_run-02/stereo_PR16.wav	1.0	1	0.9279999999999999
46.394	3.5	P_O	1.0	n/a	n/a	1.0	1.464	Phon/Phon_run-02/PC022.wav	1.0	1	1.214
49.8966	4.0760000000000005	P_R	1.0	n/a	n/a	1.0	1.274	Phon/Phon_run-02/stereo_PR08.wav	1.0	1	1.024
53.983000000000004	3.5	P_O	1.0	n/a	n/a	1.0	2.003	Phon/Phon_run-02/PC028.wav	1.0	1	1.7530000000000001
57.4856	3.5	P_U	2.0	n/a	n/a	2.0	1.8159999999999998	Phon/Phon_run-02/stereo_PU27.wav	2.0	1	1.566
60.9881	3.819	P_C	1.0	n/a	n/a	1.0	0.456	Phon/Phon_run-02/ContS06.wav	1.0	1	1.206
64.8086	4.25	P_O	1.0	n/a	n/a	1.0	1.6380000000000001	Phon/Phon_run-02/PC031.wav	1.0	1	1.388
69.062	3.662	P_C	1.0	n/a	n/a	1.0	0.175	Phon/Phon_run-02/ContS36.wav	1.0	1	0.925
72.7312	3.823	P_O	1.0	n/a	n/a	1.0	1.52	Phon/Phon_run-02/PC023.wav	1.0	1	1.27
76.5674	4.323	P_C	1.0	n/a	n/a	2.0	0.995	Phon/Phon_run-02/ContS24.wav	2.0	0	1.745
80.9038	3.865	P_U	2.0	n/a	n/a	2.0	1.3259999999999998	Phon/Phon_run-02/PM004.wav	2.0	1	1.0759999999999998
84.7733	3.875	P_O	1.0	n/a	n/a	1.0	1.642	Phon/Phon_run-02/PC007.wav	1.0	1	1.392
88.6594	4.25	P_U	2.0	n/a	n/a	2.0	2.162	Phon/Phon_run-02/PM011.wav	2.0	1	1.912
92.9126	4.362	P_C	1.0	n/a	n/a	1.0	0.507	Phon/Phon_run-02/ContS30.wav	1.0	1	1.2570000000000001
97.2825	3.875	P_O	1.0	n/a	n/a	1.0	1.2570000000000001	Phon/Phon_run-02/PC030.wav	1.0	1	1.007
101.1687	3.3360000000000003	P_R	1.0	n/a	n/a	1.0	1.416	Phon/Phon_run-02/stereo_PR05.wav	1.0	1	1.166
104.5077	4.113	P_U	2.0	n/a	n/a	2.0	1.8359999999999999	Phon/Phon_run-02/stereo_PU01.wav	2.0	1	1.586
108.6273	4.1739999999999995	P_U	2.0	n/a	n/a	2.0	1.4480000000000002	Phon/Phon_run-02/PM029.wav	2.0	1	1.1980000000000002
112.8137	3.4539999999999997	P_C	1.0	n/a	n/a	1.0	0.643	Phon/Phon_run-02/ContS08.wav	1.0	1	1.393
116.2828	3.446	P_R	1.0	n/a	n/a	1.0	1.195	Phon/Phon_run-02/stereo_PR30.wav	1.0	1	0.9450000000000001
119.7352	3.85	P_R	1.0	n/a	n/a	1.0	1.2009999999999998	Phon/Phon_run-02/stereo_PR07.wav	1.0	1	0.9509999999999998
123.588	3.438	P_U	2.0	n/a	n/a	2.0	1.185	Phon/Phon_run-02/stereo_PU02.wav	2.0	1	0.935
127.0406	3.915	P_C	1.0	n/a	n/a	1.0	0.368	Phon/Phon_run-02/ContS20.wav	1.0	1	1.1179999999999999
130.9601	3.487	P_U	2.0	n/a	n/a	2.0	1.5119999999999998	Phon/Phon_run-02/PM021.wav	2.0	1	1.2619999999999998
134.46200000000002	3.965	P_C	1.0	n/a	n/a	1.0	0.514	Phon/Phon_run-02/ContS26.wav	1.0	1	1.264
138.4315	3.792	P_R	1.0	n/a	n/a	1.0	1.123	Phon/Phon_run-02/stereo_PR31.wav	1.0	1	0.873
142.2343	4.135	P_O	1.0	n/a	n/a	1.0	2.544	Phon/Phon_run-02/PC024.wav	1.0	1	2.294
146.3717	3.875	P_U	2.0	n/a	n/a	2.0	1.518	Phon/Phon_run-02/PM010.wav	2.0	1	1.268
150.2579	3.875	P_O	1.0	n/a	n/a	2.0	2.339	Phon/Phon_run-02/PC015.wav	2.0	0	2.089
154.144	4.245	P_C	1.0	n/a	n/a	1.0	2.169	Phon/Phon_run-02/ContS14.wav	1.0	1	2.919
158.3971	3.854	P_R	1.0	n/a	n/a	1.0	2.003	Phon/Phon_run-02/stereo_PR14.wav	1.0	1	1.7530000000000001
162.2662	4.239	P_O	1.0	n/a	n/a	1.0	3.0580000000000003	Phon/Phon_run-02/PC008.wav	1.0	1	2.8080000000000003
166.5192	4.25	P_U	2.0	n/a	n/a	2.0	2.2680000000000002	Phon/Phon_run-02/stereo_PU11.wav	2.0	1	2.018
170.7726	3.523	P_C	1.0	n/a	n/a	1.0	1.5419999999999998	Phon/Phon_run-02/ContS18.wav	1.0	1	2.292
174.3085	3.429	P_O	1.0	n/a	n/a	n/a	n/a	Phon/Phon_run-02/PC006.wav	1.0	1	2.4459999999999997
177.7443	4.18	P_R	1.0	1.0	0.017	1.0	1.423	Phon/Phon_run-02/stereo_PR32.wav	1.0	1	1.173
181.9307	4.104	P_R	1.0	n/a	n/a	1.0	1.185	Phon/Phon_run-02/stereo_PR24.wav	1.0	1	0.935
