onset	duration	trial_type	correct	window1_response	window1_RT	window2_response	window2_RT	stim_file	calculated_response	calculated_accuracy	calculated_RT
1.0924	3.5	P_R	1.0	n/a	n/a	1.0	1.912	Phon/Phon_run-02/stereo_PR20.wav	1.0	1	1.662
4.595	4.235	P_O	1.0	n/a	n/a	1.0	1.53	Phon/Phon_run-02/PC034.wav	1.0	1	1.28
8.8325	3.375	P_R	1.0	n/a	n/a	1.0	2.0669999999999997	Phon/Phon_run-02/stereo_PR13.wav	1.0	1	1.8169999999999997
12.2183	3.474	P_C	1.0	n/a	n/a	1.0	0.07	Phon/Phon_run-02/ContS12.wav	1.0	1	0.8200000000000001
15.7041	3.875	P_U	2.0	n/a	n/a	2.0	1.7269999999999999	Phon/Phon_run-02/PM025.wav	2.0	1	1.4769999999999999
19.5903	3.726	P_R	1.0	n/a	n/a	1.0	1.403	Phon/Phon_run-02/stereo_PR22.wav	1.0	1	1.153
23.3263	3.451	P_O	1.0	n/a	n/a	2.0	2.286	Phon/Phon_run-02/PC014.wav	2.0	0	2.036
26.7799	3.779	P_C	1.0	n/a	n/a	1.0	0.374	Phon/Phon_run-02/ContS02.wav	1.0	1	1.124
30.566	3.821	P_U	2.0	n/a	n/a	2.0	1.4280000000000002	Phon/Phon_run-02/stereo_PU18.wav	2.0	1	1.1780000000000002
34.402	3.49	P_U	2.0	n/a	n/a	2.0	1.845	Phon/Phon_run-02/stereo_PU12.wav	2.0	1	1.595
37.9046	4.38	P_C	1.0	1.0	0.636	1.0	0.505	Phon/Phon_run-02/ContS32.wav	1.0	1	0.636
42.291000000000004	4.0969999999999995	P_R	1.0	n/a	n/a	1.0	1.8230000000000002	Phon/Phon_run-02/stereo_PR16.wav	1.0	1	1.5730000000000002
46.394	3.5	P_O	1.0	n/a	n/a	1.0	1.355	Phon/Phon_run-02/PC022.wav	1.0	1	1.105
49.8966	4.0760000000000005	P_R	1.0	n/a	n/a	1.0	1.955	Phon/Phon_run-02/stereo_PR08.wav	1.0	1	1.705
53.983000000000004	3.5	P_O	1.0	n/a	n/a	1.0	1.618	Phon/Phon_run-02/PC028.wav	1.0	1	1.368
57.4856	3.5	P_U	2.0	n/a	n/a	2.0	1.9909999999999999	Phon/Phon_run-02/stereo_PU27.wav	2.0	1	1.7409999999999999
60.9881	3.819	P_C	1.0	1.0	0.565	1.0	0.8909999999999999	Phon/Phon_run-02/ContS06.wav	1.0	1	0.565
64.8086	4.25	P_O	1.0	n/a	n/a	1.0	1.304	Phon/Phon_run-02/PC031.wav	1.0	1	1.054
69.062	3.662	P_C	1.0	n/a	n/a	1.0	0.198	Phon/Phon_run-02/ContS36.wav	1.0	1	0.948
72.7312	3.823	P_O	1.0	n/a	n/a	1.0	1.2309999999999999	Phon/Phon_run-02/PC023.wav	1.0	1	0.9809999999999999
76.5674	4.323	P_C	1.0	n/a	n/a	1.0	0.149	Phon/Phon_run-02/ContS24.wav	1.0	1	0.899
80.9038	3.865	P_U	2.0	n/a	n/a	2.0	1.771	Phon/Phon_run-02/PM004.wav	2.0	1	1.521
84.7733	3.875	P_O	1.0	n/a	n/a	1.0	1.189	Phon/Phon_run-02/PC007.wav	1.0	1	0.9390000000000001
88.6594	4.25	P_U	2.0	n/a	n/a	2.0	1.452	Phon/Phon_run-02/PM011.wav	2.0	1	1.202
92.9126	4.362	P_C	1.0	n/a	n/a	1.0	0.035	Phon/Phon_run-02/ContS30.wav	1.0	1	0.785
97.2825	3.875	P_O	1.0	n/a	n/a	2.0	1.237	Phon/Phon_run-02/PC030.wav	2.0	0	0.9870000000000001
101.1687	3.3360000000000003	P_R	1.0	n/a	n/a	1.0	1.703	Phon/Phon_run-02/stereo_PR05.wav	1.0	1	1.453
104.5077	4.113	P_U	2.0	n/a	n/a	1.0	1.7	Phon/Phon_run-02/stereo_PU01.wav	1.0	0	1.45
108.6273	4.1739999999999995	P_U	2.0	n/a	n/a	2.0	1.8230000000000002	Phon/Phon_run-02/PM029.wav	2.0	1	1.5730000000000002
112.8137	3.4539999999999997	P_C	1.0	1.0	0.652	1.0	0.503	Phon/Phon_run-02/ContS08.wav	1.0	1	0.652
116.2828	3.446	P_R	1.0	n/a	n/a	1.0	1.2790000000000001	Phon/Phon_run-02/stereo_PR30.wav	1.0	1	1.0290000000000001
119.7352	3.85	P_R	1.0	n/a	n/a	1.0	2.156	Phon/Phon_run-02/stereo_PR07.wav	1.0	1	1.9060000000000001
123.588	3.438	P_U	2.0	n/a	n/a	2.0	1.2409999999999999	Phon/Phon_run-02/stereo_PU02.wav	2.0	1	0.9909999999999999
127.0406	3.915	P_C	1.0	n/a	n/a	1.0	0.036000000000000004	Phon/Phon_run-02/ContS20.wav	1.0	1	0.786
130.9601	3.487	P_U	2.0	n/a	n/a	2.0	1.736	Phon/Phon_run-02/PM021.wav	2.0	1	1.486
134.46200000000002	3.965	P_C	1.0	n/a	n/a	1.0	0.5660000000000001	Phon/Phon_run-02/ContS26.wav	1.0	1	1.316
138.4315	3.792	P_R	1.0	n/a	n/a	1.0	2.011	Phon/Phon_run-02/stereo_PR31.wav	1.0	1	1.7610000000000001
142.2343	4.135	P_O	1.0	n/a	n/a	2.0	1.7280000000000002	Phon/Phon_run-02/PC024.wav	2.0	0	1.4780000000000002
146.3717	3.875	P_U	2.0	n/a	n/a	2.0	1.5859999999999999	Phon/Phon_run-02/PM010.wav	2.0	1	1.3359999999999999
150.2579	3.875	P_O	1.0	n/a	n/a	2.0	1.7409999999999999	Phon/Phon_run-02/PC015.wav	2.0	0	1.4909999999999999
154.144	4.245	P_C	1.0	1.0	0.556	1.0	0.473	Phon/Phon_run-02/ContS14.wav	1.0	1	0.556
158.3971	3.854	P_R	1.0	n/a	n/a	1.0	1.391	Phon/Phon_run-02/stereo_PR14.wav	1.0	1	1.141
162.2662	4.239	P_O	1.0	n/a	n/a	1.0	1.9240000000000002	Phon/Phon_run-02/PC008.wav	1.0	1	1.6740000000000002
166.5192	4.25	P_U	2.0	n/a	n/a	2.0	1.376	Phon/Phon_run-02/stereo_PU11.wav	2.0	1	1.126
170.7726	3.523	P_C	1.0	n/a	n/a	1.0	0.091	Phon/Phon_run-02/ContS18.wav	1.0	1	0.841
174.3085	3.429	P_O	1.0	n/a	n/a	1.0	1.47	Phon/Phon_run-02/PC006.wav	1.0	1	1.22
177.7443	4.18	P_R	1.0	n/a	n/a	1.0	2.113	Phon/Phon_run-02/stereo_PR32.wav	1.0	1	1.863
181.9307	4.104	P_R	1.0	n/a	n/a	1.0	1.247	Phon/Phon_run-02/stereo_PR24.wav	1.0	1	0.9970000000000001
