onset	duration	trial_type	correct	window1_response	window1_RT	window2_response	window2_RT	stim_file	calculated_response	calculated_accuracy	calculated_RT
1.0918	4.2	S_U	2.0	n/a	n/a	1.0	2.7230000000000003	Sem/Sem_run-01/stereo_1SU41A0.wav	1.0	0	2.4730000000000003
5.2953	3.596	S_C	1.0	n/a	n/a	2.0	0.156	Sem/Sem_run-01/ContS29.wav	2.0	0	0.906
8.898	3.425	S_U	2.0	n/a	n/a	2.0	1.4240000000000002	Sem/Sem_run-01/stereo_2SU87A0.wav	2.0	1	1.1740000000000002
12.3338	3.933	S_H	1.0	n/a	n/a	1.0	1.504	Sem/Sem_run-01/stereo_1SH13A0.wav	1.0	1	1.254
16.2699	4.323	S_H	1.0	n/a	n/a	1.0	1.344	Sem/Sem_run-01/stereo_1SH05A0.wav	1.0	1	1.094
20.6064	4.073	S_C	1.0	n/a	n/a	1.0	1.919	Sem/Sem_run-01/ContS31.wav	1.0	1	2.669
24.6927	3.869	S_L	1.0	n/a	n/a	1.0	1.735	Sem/Sem_run-01/stereo_2SL63A0.wav	1.0	1	1.485
28.5634	3.75	S_L	1.0	n/a	n/a	1.0	1.703	Sem/Sem_run-01/stereo_1SL29A0.wav	1.0	1	1.453
32.3161	4.3660000000000005	S_U	2.0	n/a	n/a	2.0	2.043	Sem/Sem_run-01/stereo_2SU78A0.wav	2.0	1	1.7930000000000001
36.6859	3.3	S_L	1.0	n/a	n/a	1.0	1.84	Sem/Sem_run-01/stereo_1SL17A0.wav	1.0	1	1.59
39.9885	3.884	S_C	1.0	n/a	n/a	1.0	0.43700000000000006	Sem/Sem_run-01/ContS05.wav	1.0	1	1.187
43.8755	4.371	S_H	1.0	n/a	n/a	1.0	1.297	Sem/Sem_run-01/stereo_2SH58A0.wav	1.0	1	1.047
48.2606	4.329	S_L	1.0	n/a	n/a	1.0	1.439	Sem/Sem_run-01/stereo_2SL72A0.wav	1.0	1	1.189
52.5971	3.94	S_H	1.0	n/a	n/a	1.0	1.099	Sem/Sem_run-01/stereo_2SH57A0.wav	1.0	1	0.849
56.55	4.2	S_U	2.0	n/a	n/a	2.0	1.6269999999999998	Sem/Sem_run-01/stereo_2SU83A0.wav	2.0	1	1.3769999999999998
60.753	3.474	S_C	1.0	n/a	n/a	1.0	0.589	Sem/Sem_run-01/ContS11.wav	1.0	1	1.339
64.2389	4.271	S_L	1.0	n/a	n/a	1.0	1.304	Sem/Sem_run-01/stereo_1SL26A0.wav	1.0	1	1.054
68.5248	3.91	S_L	1.0	n/a	n/a	1.0	1.2690000000000001	Sem/Sem_run-01/stereo_1SL25A0.wav	1.0	1	1.019
72.4443	4.479	S_C	1.0	n/a	n/a	1.0	0.429	Sem/Sem_run-01/ContS25.wav	1.0	1	1.179
76.9309	3.378	S_U	2.0	n/a	n/a	1.0	1.871	Sem/Sem_run-01/stereo_2SU81A0.wav	1.0	0	1.621
80.3167	3.42	S_L	1.0	n/a	n/a	n/a	n/a	Sem/Sem_run-01/stereo_1SL27A0.wav	n/a	0	n/a
83.7479	4.3439999999999985	S_L	1.0	n/a	n/a	1.0	1.358	Sem/Sem_run-01/stereo_1SL30A0.wav	1.0	1	1.108
88.1008	3.909	S_L	1.0	n/a	n/a	1.0	1.61	Sem/Sem_run-01/stereo_2SL71A0.wav	1.0	1	1.36
92.0205	3.867	S_H	1.0	n/a	n/a	1.0	1.6669999999999998	Sem/Sem_run-01/stereo_1SH04A0.wav	1.0	1	1.4169999999999998
95.8902	3.828	S_U	2.0	n/a	n/a	2.0	1.482	Sem/Sem_run-01/stereo_1SU37A0.wav	2.0	1	1.232
99.7264	4.565	S_C	1.0	n/a	n/a	1.0	0.95	Sem/Sem_run-01/ContS35.wav	1.0	1	1.7
104.2964	3.3	S_U	2.0	n/a	n/a	1.0	1.599	Sem/Sem_run-01/stereo_1SU35A0.wav	1.0	0	1.349
107.5986	3.477	S_L	1.0	n/a	n/a	1.0	1.876	Sem/Sem_run-01/stereo_2SL65A0.wav	1.0	1	1.626
111.0845	3.83	S_H	1.0	n/a	n/a	1.0	1.8730000000000002	Sem/Sem_run-01/stereo_1SH07A0.wav	1.0	1	1.623
114.9207	4.3439999999999985	S_C	1.0	n/a	n/a	1.0	2.949	Sem/Sem_run-01/ContS07.wav	1.0	1	3.699
119.2738	3.5	S_H	1.0	n/a	n/a	1.0	1.7280000000000002	Sem/Sem_run-01/stereo_1SH03A0.wav	1.0	1	1.4780000000000002
122.7765	3.919	S_U	2.0	n/a	n/a	2.0	2.199	Sem/Sem_run-01/stereo_1SU45A0.wav	2.0	1	1.9489999999999998
126.697	3.5	S_H	1.0	n/a	n/a	n/a	n/a	Sem/Sem_run-01/stereo_1SH06A0.wav	n/a	0	n/a
130.1996	3.392	S_L	1.0	n/a	n/a	n/a	n/a	Sem/Sem_run-01/stereo_2SL62A0.wav	n/a	0	n/a
133.6021	3.54	S_C	1.0	1.0	0.502	2.0	1.176	Sem/Sem_run-01/ContS19.wav	1.0	1	0.502
137.1547	4.4	S_H	1.0	n/a	n/a	1.0	1.886	Sem/Sem_run-01/stereo_1SH15A0.wav	1.0	1	1.636
141.5578	3.342	S_H	1.0	n/a	n/a	1.0	1.47	Sem/Sem_run-01/stereo_1SH11A0.wav	1.0	1	1.22
144.9103	3.385	S_U	2.0	n/a	n/a	1.0	1.071	Sem/Sem_run-01/stereo_1SU44A0.wav	1.0	0	0.821
148.2972	3.4160000000000004	S_H	1.0	n/a	n/a	1.0	1.3330000000000002	Sem/Sem_run-01/stereo_2SH56A0.wav	1.0	1	1.0830000000000002
151.7164	3.849	S_U	2.0	n/a	n/a	1.0	1.297	Sem/Sem_run-01/stereo_2SU82A0.wav	1.0	0	1.047
155.5691	3.934	S_C	1.0	n/a	n/a	1.0	1.168	Sem/Sem_run-01/ContS13.wav	1.0	1	1.918
159.506	4.309	S_L	1.0	n/a	n/a	1.0	1.3519999999999999	Sem/Sem_run-01/stereo_2SL64A0.wav	1.0	1	1.102
163.8257	4.413	S_C	1.0	n/a	n/a	1.0	1.608	Sem/Sem_run-01/ContS17.wav	1.0	1	2.358
168.2456	4.2	S_U	2.0	n/a	n/a	1.0	2.094	Sem/Sem_run-01/stereo_2SU90A0.wav	1.0	0	1.8439999999999999
172.4489	3.846	S_U	2.0	n/a	n/a	2.0	2.358	Sem/Sem_run-01/stereo_2SU88A0.wav	2.0	1	2.108
176.3017	3.3939999999999997	S_C	1.0	n/a	n/a	1.0	2.097	Sem/Sem_run-01/ContS01.wav	1.0	1	2.847
179.7041	4.013	S_C	1.0	n/a	n/a	1.0	0.434	Sem/Sem_run-01/ContS23.wav	1.0	1	1.184
183.7237	4.227	S_H	1.0	n/a	n/a	1.0	1.285	Sem/Sem_run-01/stereo_1SH08A0.wav	1.0	1	1.035
