onset	duration	trial_type	correct	window1_response	window1_RT	window2_response	window2_RT	stim_file	calculated_response	calculated_accuracy	calculated_RT
1.0924	3.5	P_R	1.0	n/a	n/a	1.0	1.151	Phon/Phon_run-02/stereo_PR20.wav	1.0	1	0.901
4.595	4.235	P_O	1.0	n/a	n/a	1.0	1.605	Phon/Phon_run-02/PC034.wav	1.0	1	1.355
8.8325	3.375	P_R	1.0	n/a	n/a	1.0	1.287	Phon/Phon_run-02/stereo_PR13.wav	1.0	1	1.037
12.2183	3.474	P_C	1.0	n/a	n/a	1.0	0.91	Phon/Phon_run-02/ContS12.wav	1.0	1	1.6600000000000001
15.7041	3.875	P_U	2.0	n/a	n/a	2.0	1.3259999999999998	Phon/Phon_run-02/PM025.wav	2.0	1	1.0759999999999998
19.5903	3.726	P_R	1.0	n/a	n/a	1.0	1.905	Phon/Phon_run-02/stereo_PR22.wav	1.0	1	1.655
23.3263	3.451	P_O	1.0	n/a	n/a	1.0	1.4	Phon/Phon_run-02/PC014.wav	1.0	1	1.15
26.7799	3.779	P_C	1.0	n/a	n/a	1.0	0.583	Phon/Phon_run-02/ContS02.wav	1.0	1	1.333
30.566	3.821	P_U	2.0	n/a	n/a	2.0	1.526	Phon/Phon_run-02/stereo_PU18.wav	2.0	1	1.276
34.402	3.49	P_U	2.0	n/a	n/a	n/a	n/a	Phon/Phon_run-02/stereo_PU12.wav	n/a	0	n/a
37.9046	4.38	P_C	1.0	2.0	0.33899999999999997	1.0	0.023	Phon/Phon_run-02/ContS32.wav	2.0	0	0.339
42.291000000000004	4.0969999999999995	P_R	1.0	n/a	n/a	1.0	1.865	Phon/Phon_run-02/stereo_PR16.wav	1.0	1	1.615
46.394	3.5	P_O	1.0	n/a	n/a	n/a	n/a	Phon/Phon_run-02/PC022.wav	1.0	1	2.634
49.8966	4.0760000000000005	P_R	1.0	1.0	0.134	1.0	2.3609999999999998	Phon/Phon_run-02/stereo_PR08.wav	1.0	1	2.111
53.983000000000004	3.5	P_O	1.0	n/a	n/a	n/a	n/a	Phon/Phon_run-02/PC028.wav	n/a	0	n/a
57.4856	3.5	P_U	2.0	n/a	n/a	2.0	1.4380000000000002	Phon/Phon_run-02/stereo_PU27.wav	2.0	1	1.1880000000000002
60.9881	3.819	P_C	1.0	n/a	n/a	1.0	0.262	Phon/Phon_run-02/ContS06.wav	1.0	1	1.012
64.8086	4.25	P_O	1.0	n/a	n/a	n/a	n/a	Phon/Phon_run-02/PC031.wav	n/a	0	n/a
69.062	3.662	P_C	1.0	n/a	n/a	n/a	n/a	Phon/Phon_run-02/ContS36.wav	n/a	0	n/a
72.7312	3.823	P_O	1.0	n/a	n/a	1.0	1.281	Phon/Phon_run-02/PC023.wav	1.0	1	1.031
76.5674	4.323	P_C	1.0	n/a	n/a	n/a	n/a	Phon/Phon_run-02/ContS24.wav	n/a	0	n/a
80.9038	3.865	P_U	2.0	n/a	n/a	2.0	2.162	Phon/Phon_run-02/PM004.wav	2.0	1	1.912
84.7733	3.875	P_O	1.0	n/a	n/a	1.0	1.117	Phon/Phon_run-02/PC007.wav	1.0	1	0.867
88.6594	4.25	P_U	2.0	n/a	n/a	2.0	1.251	Phon/Phon_run-02/PM011.wav	2.0	1	1.001
92.9126	4.362	P_C	1.0	n/a	n/a	1.0	1.538	Phon/Phon_run-02/ContS30.wav	1.0	1	2.2880000000000003
97.2825	3.875	P_O	1.0	n/a	n/a	n/a	n/a	Phon/Phon_run-02/PC030.wav	n/a	0	n/a
101.1687	3.3360000000000003	P_R	1.0	n/a	n/a	n/a	n/a	Phon/Phon_run-02/stereo_PR05.wav	n/a	0	n/a
104.5077	4.113	P_U	2.0	n/a	n/a	2.0	1.272	Phon/Phon_run-02/stereo_PU01.wav	2.0	1	1.022
108.6273	4.1739999999999995	P_U	2.0	n/a	n/a	n/a	n/a	Phon/Phon_run-02/PM029.wav	n/a	0	n/a
112.8137	3.4539999999999997	P_C	1.0	n/a	n/a	1.0	0.893	Phon/Phon_run-02/ContS08.wav	1.0	1	1.643
116.2828	3.446	P_R	1.0	n/a	n/a	n/a	n/a	Phon/Phon_run-02/stereo_PR30.wav	n/a	0	n/a
119.7352	3.85	P_R	1.0	n/a	n/a	n/a	n/a	Phon/Phon_run-02/stereo_PR07.wav	n/a	0	n/a
123.588	3.438	P_U	2.0	n/a	n/a	2.0	1.297	Phon/Phon_run-02/stereo_PU02.wav	2.0	1	1.047
127.0406	3.915	P_C	1.0	n/a	n/a	1.0	0.215	Phon/Phon_run-02/ContS20.wav	1.0	1	0.965
130.9601	3.487	P_U	2.0	n/a	n/a	n/a	n/a	Phon/Phon_run-02/PM021.wav	n/a	0	n/a
134.46200000000002	3.965	P_C	1.0	n/a	n/a	1.0	0.021	Phon/Phon_run-02/ContS26.wav	1.0	1	0.771
138.4315	3.792	P_R	1.0	n/a	n/a	n/a	n/a	Phon/Phon_run-02/stereo_PR31.wav	n/a	0	n/a
142.2343	4.135	P_O	1.0	n/a	n/a	n/a	n/a	Phon/Phon_run-02/PC024.wav	n/a	0	n/a
146.3717	3.875	P_U	2.0	n/a	n/a	2.0	1.6969999999999998	Phon/Phon_run-02/PM010.wav	2.0	1	1.4469999999999998
150.2579	3.875	P_O	1.0	n/a	n/a	n/a	n/a	Phon/Phon_run-02/PC015.wav	n/a	0	n/a
154.144	4.245	P_C	1.0	n/a	n/a	1.0	0.521	Phon/Phon_run-02/ContS14.wav	1.0	1	1.271
158.3971	3.854	P_R	1.0	n/a	n/a	n/a	n/a	Phon/Phon_run-02/stereo_PR14.wav	n/a	0	n/a
162.2662	4.239	P_O	1.0	n/a	n/a	n/a	n/a	Phon/Phon_run-02/PC008.wav	n/a	0	n/a
166.5192	4.25	P_U	2.0	n/a	n/a	2.0	2.227	Phon/Phon_run-02/stereo_PU11.wav	2.0	1	1.9769999999999999
170.7726	3.523	P_C	1.0	n/a	n/a	n/a	n/a	Phon/Phon_run-02/ContS18.wav	n/a	0	n/a
174.3085	3.429	P_O	1.0	n/a	n/a	n/a	n/a	Phon/Phon_run-02/PC006.wav	n/a	0	n/a
177.7443	4.18	P_R	1.0	n/a	n/a	n/a	n/a	Phon/Phon_run-02/stereo_PR32.wav	n/a	0	n/a
181.9307	4.104	P_R	1.0	n/a	n/a	n/a	n/a	Phon/Phon_run-02/stereo_PR24.wav	n/a	0	n/a
