onset	duration	trial_type	correct	window1_response	window1_RT	window2_response	window2_RT	stim_file	calculated_response	calculated_accuracy	calculated_RT
1.0925	3.4539999999999997	P_R	1.0	n/a	n/a	1.0	1.5119999999999998	Phon/Phon_run-01/stereo_PR01.wav	1.0	1	1.2619999999999998
4.5615	3.767	P_O	1.0	n/a	n/a	1.0	1.3359999999999999	Phon/Phon_run-01/PC018.wav	1.0	1	1.086
8.3317	3.391	P_O	1.0	n/a	n/a	n/a	n/a	Phon/Phon_run-01/PC009.wav	n/a	0	n/a
11.7341	4.374	P_C	1.0	n/a	n/a	1.0	0.16699999999999998	Phon/Phon_run-01/ContS11.wav	1.0	1	0.917
16.1207	3.345	P_U	2.0	n/a	n/a	n/a	n/a	Phon/Phon_run-01/PM002.wav	n/a	0	n/a
19.473	4.4510000000000005	P_C	1.0	n/a	n/a	n/a	n/a	Phon/Phon_run-01/ContS21.wav	n/a	0	n/a
23.9275	4.382	P_O	1.0	n/a	n/a	1.0	1.736	Phon/Phon_run-01/PC005.wav	1.0	1	1.486
28.314	3.3	P_U	2.0	n/a	n/a	n/a	n/a	Phon/Phon_run-01/stereo_PU26.wav	n/a	0	n/a
31.6165	4.324	P_C	1.0	n/a	n/a	1.0	1.565	Phon/Phon_run-01/ContS03.wav	1.0	1	2.315
35.9529	4.378	P_R	1.0	n/a	n/a	1.0	1.646	Phon/Phon_run-01/stereo_PR29.wav	1.0	1	1.396
40.3393	3.4810000000000003	P_U	2.0	n/a	n/a	2.0	1.643	Phon/Phon_run-01/PM020.wav	2.0	1	1.393
43.8252	4.393	P_O	1.0	n/a	n/a	1.0	1.23	Phon/Phon_run-01/PC027.wav	1.0	1	0.98
48.2284	4.4	P_R	1.0	n/a	n/a	1.0	1.4240000000000002	Phon/Phon_run-01/stereo_PR11.wav	1.0	1	1.1740000000000002
52.6316	3.884	P_C	1.0	n/a	n/a	1.0	1.003	Phon/Phon_run-01/ContS05.wav	1.0	1	1.753
56.5186	3.891	P_U	2.0	n/a	n/a	2.0	1.695	Phon/Phon_run-01/stereo_PU28.wav	2.0	1	1.445
60.4213	4.4	P_O	1.0	n/a	n/a	1.0	1.912	Phon/Phon_run-01/PC013.wav	1.0	1	1.662
64.8247	3.513	P_C	1.0	n/a	n/a	1.0	1.138	Phon/Phon_run-01/ContS17.wav	1.0	1	1.888
68.3439	4.4	P_U	2.0	n/a	n/a	2.0	1.9680000000000002	Phon/Phon_run-01/PM027.wav	2.0	1	1.718
72.7471	4.4	P_O	1.0	n/a	n/a	1.0	1.012	Phon/Phon_run-01/PC021.wav	1.0	1	0.762
77.1504	4.496	P_C	1.0	n/a	n/a	1.0	1.633	Phon/Phon_run-01/ContS29.wav	1.0	1	2.383
81.6536	3.3680000000000003	P_R	1.0	n/a	n/a	n/a	n/a	Phon/Phon_run-01/stereo_PR25.wav	n/a	0	n/a
85.0239	3.95	P_O	1.0	n/a	n/a	1.0	1.444	Phon/Phon_run-01/PC012.wav	1.0	1	1.194
88.9768	3.95	P_U	2.0	n/a	n/a	2.0	1.86	Phon/Phon_run-01/PM003.wav	2.0	1	1.61
92.9297	3.939	P_O	1.0	n/a	n/a	n/a	n/a	Phon/Phon_run-01/PC004.wav	n/a	0	n/a
96.8826	3.59	P_C	1.0	n/a	n/a	2.0	1.3940000000000001	Phon/Phon_run-01/ContS27.wav	2.0	0	2.144
100.4851	4.296	P_U	2.0	n/a	n/a	n/a	n/a	Phon/Phon_run-01/stereo_PU21.wav	2.0	1	3.8310000000000004
104.7882	3.862	P_R	1.0	2.0	0.535	1.0	1.3559999999999999	Phon/Phon_run-01/stereo_PR26.wav	1.0	1	1.106
108.6576	3.95	P_O	1.0	n/a	n/a	n/a	n/a	Phon/Phon_run-01/PC026.wav	n/a	0	n/a
112.6107	3.5	P_O	1.0	n/a	n/a	n/a	n/a	Phon/Phon_run-01/PC025.wav	n/a	0	n/a
116.1133	4.013	P_C	1.0	1.0	0.28800000000000003	2.0	0.033	Phon/Phon_run-01/ContS23.wav	1.0	1	0.28800000000000003
120.1329	3.792	P_R	1.0	n/a	n/a	1.0	2.386	Phon/Phon_run-01/stereo_PR18.wav	1.0	1	2.136
123.9359	3.346	P_U	2.0	n/a	n/a	2.0	1.702	Phon/Phon_run-01/stereo_PU19.wav	2.0	1	1.452
127.2885	3.891	P_R	1.0	n/a	n/a	2.0	2.461	Phon/Phon_run-01/stereo_PR03.wav	2.0	0	2.211
131.1913	3.355	P_O	1.0	n/a	n/a	n/a	n/a	Phon/Phon_run-01/PC003.wav	n/a	0	n/a
134.5604	3.951	P_C	1.0	1.0	0.33	n/a	n/a	Phon/Phon_run-01/ContS15.wav	1.0	1	0.33
138.5144	3.74	P_U	2.0	n/a	n/a	2.0	2.481	Phon/Phon_run-01/stereo_PU16.wav	2.0	1	2.231
142.2671	3.95	P_R	1.0	n/a	n/a	1.0	2.144	Phon/Phon_run-01/stereo_PR10.wav	1.0	1	1.8940000000000001
146.22	3.464	P_C	1.0	n/a	n/a	n/a	n/a	Phon/Phon_run-01/ContS09.wav	n/a	0	n/a
149.6892	4.275	P_R	1.0	n/a	n/a	n/a	n/a	Phon/Phon_run-01/stereo_PR04.wav	n/a	0	n/a
153.9756	3.95	P_U	2.0	n/a	n/a	2.0	1.12	Phon/Phon_run-01/PM023.wav	2.0	1	0.8700000000000001
157.9284	4.4	P_U	2.0	n/a	n/a	n/a	n/a	Phon/Phon_run-01/PM001.wav	n/a	0	n/a
162.3319	3.665	P_C	1.0	n/a	n/a	1.0	0.635	Phon/Phon_run-01/ContS35.wav	1.0	1	1.385
166.0011	3.463	P_O	1.0	n/a	n/a	1.0	1.3780000000000001	Phon/Phon_run-01/PC017.wav	1.0	1	1.128
169.4703	4.332	P_R	1.0	n/a	n/a	1.0	1.784	Phon/Phon_run-01/stereo_PR19.wav	1.0	1	1.534
173.8067	4.083	P_C	1.0	n/a	n/a	1.0	1.39	Phon/Phon_run-01/ContS33.wav	1.0	1	2.1399999999999997
177.893	3.5	P_R	1.0	n/a	n/a	1.0	1.595	Phon/Phon_run-01/stereo_PR17.wav	1.0	1	1.345
181.3956	4.2669999999999995	P_U	2.0	n/a	n/a	2.0	1.797	Phon/Phon_run-01/PM009.wav	2.0	1	1.547
185.6658	3.4389999999999996	P_R	1.0	n/a	n/a	n/a	n/a	Phon/Phon_run-01/stereo_PR09.wav	n/a	0	n/a
