onset	duration	trial_type	correct	window1_response	window1_RT	window2_response	window2_RT	stim_file	calculated_response	calculated_accuracy	calculated_RT
1.101	7.632999999999999	G_P	2.0	n/a	n/a	2.0	3.821	Gram/Gram_run-02/stereo_1MP45U4.wav	2.0	1	1.69
8.74	7.315	G_F	2.0	n/a	n/a	2.0	3.945	Gram/Gram_run-02/stereo_1MF20U4.wav	2.0	1	3.2349999999999994
16.062	6.283	G_P	2.0	n/a	n/a	2.0	3.622	Gram/Gram_run-02/stereo_1MP34U2.wav	2.0	1	2.53
22.35	6.195	G_C	1.0	n/a	n/a	1.0	0.387	Gram/Gram_run-02/CoM06d.wav	1.0	1	1.137
28.555	6.221	G_G	1.0	n/a	n/a	1.0	3.255	Gram/Gram_run-02/stereo_1MF02G1.wav	1.0	1	1.2149999999999999
34.776	5.801	G_F	2.0	n/a	n/a	2.0	3.382	Gram/Gram_run-02/stereo_2MF64U3.wav	2.0	1	4.132
40.581	6.78	G_C	1.0	n/a	n/a	1.0	0.121	Gram/Gram_run-02/CoM07l.wav	1.0	1	0.871
47.369	6.084	G_F	2.0	n/a	n/a	2.0	2.904	Gram/Gram_run-02/stereo_2MF56U2.wav	2.0	1	3.654
53.457	7.5470000000000015	G_F	2.0	n/a	n/a	2.0	3.908	Gram/Gram_run-02/stereo_1MF21U4.wav	2.0	1	3.157
61.01300000000001	6.482	G_G	1.0	n/a	n/a	1.0	4.585	Gram/Gram_run-02/stereo_1MF24G4.wav	1.0	1	2.224
67.501	6.7810000000000015	G_P	2.0	n/a	n/a	2.0	4.082	Gram/Gram_run-02/stereo_2MP76U1.wav	2.0	1	1.8200000000000003
74.29	6.643	G_P	2.0	n/a	n/a	2.0	3.882	Gram/Gram_run-02/stereo_2MP80U2.wav	2.0	1	2.926
80.945	7.69	G_C	1.0	1.0	0.69	1.0	0.8690000000000001	Gram/Gram_run-02/CoM06e.wav	1.0	1	0.69
88.65100000000002	6.352	G_F	2.0	n/a	n/a	2.0	2.424	Gram/Gram_run-02/stereo_2MF63U3.wav	2.0	1	3.174
95.006	5.801	G_G	1.0	n/a	n/a	1.0	3.439	Gram/Gram_run-02/stereo_1MF18G3.wav	1.0	1	2.056
100.81	7.113	G_P	2.0	n/a	n/a	2.0	3.913	Gram/Gram_run-02/stereo_1MP44U4.wav	2.0	1	1.5559999999999996
107.932	6.78	G_C	1.0	n/a	n/a	1.0	0.254	Gram/Gram_run-02/CoM05b.wav	1.0	1	1.004
114.721	6.7360000000000015	G_F	2.0	n/a	n/a	2.0	2.872	Gram/Gram_run-02/stereo_2MF58U2.wav	2.0	1	3.622
121.459	6.089	G_P	2.0	n/a	n/a	2.0	3.499	Gram/Gram_run-02/stereo_2MP87U3.wav	2.0	1	2.287
127.564	7.6370000000000005	G_P	2.0	n/a	n/a	2.0	4.006	Gram/Gram_run-02/stereo_2MP73U1.wav	2.0	1	1.979
135.203	7.305	G_C	1.0	1.0	0.741	1.0	0.8190000000000001	Gram/Gram_run-02/CoM02l.wav	1.0	1	0.741
142.509	5.983	G_G	1.0	n/a	n/a	1.0	3.432	Gram/Gram_run-02/stereo_1MP42G3.wav	1.0	1	2.51
148.496	5.36	G_P	2.0	n/a	n/a	2.0	3.127	Gram/Gram_run-02/stereo_1MP32U2.wav	2.0	1	2.1209999999999996
153.86700000000005	7.145	G_C	1.0	n/a	n/a	1.0	0.04	Gram/Gram_run-02/CoM09e.wav	1.0	1	0.79
161.023	6.28	G_F	2.0	n/a	n/a	2.0	3.858	Gram/Gram_run-02/stereo_1MF19U4.wav	2.0	1	3.172
167.31099999999995	6.63	G_C	1.0	n/a	n/a	1.0	0.37	Gram/Gram_run-02/CoM07b.wav	1.0	1	1.12
173.949	7.195	G_G	1.0	n/a	n/a	2.0	3.536	Gram/Gram_run-02/stereo_2MP89G3.wav	2.0	0	2.198
181.155	5.174	G_F	2.0	n/a	n/a	2.0	2.978	Gram/Gram_run-02/stereo_1MF07U2.wav	2.0	1	3.728
186.342	6.944	G_P	2.0	n/a	n/a	2.0	3.63	Gram/Gram_run-02/stereo_2MP88U3.wav	2.0	1	2.5869999999999997
193.297	6.089	G_G	1.0	n/a	n/a	1.0	3.411	Gram/Gram_run-02/stereo_2MF66G3.wav	1.0	1	2.0370000000000004
199.402	6.5	G_C	1.0	n/a	n/a	2.0	0.358	Gram/Gram_run-02/CoM01e.wav	2.0	0	1.108
205.907	6.43	G_P	2.0	n/a	n/a	2.0	3.821	Gram/Gram_run-02/stereo_1MP43U4.wav	2.0	1	1.5390000000000001
212.345	6.19	G_G	1.0	n/a	n/a	2.0	2.9760000000000004	Gram/Gram_run-02/stereo_2MP84G2.wav	2.0	0	2.0440000000000005
218.55	7.114	G_G	1.0	n/a	n/a	1.0	4.606	Gram/Gram_run-02/stereo_1MP29G1.wav	1.0	1	2.4179999999999997
225.672	6.731	G_F	2.0	n/a	n/a	1.0	4.665	Gram/Gram_run-02/stereo_2MF53U1.wav	1.0	0	4.093999999999999
232.411	6.015	G_C	1.0	n/a	n/a	2.0	0.5870000000000001	Gram/Gram_run-02/CoM02d.wav	2.0	0	1.3370000000000002
238.432	7.17	G_G	1.0	n/a	n/a	1.0	4.703	Gram/Gram_run-02/stereo_2MF71G4.wav	1.0	1	2.4539999999999997
245.604	5.33	G_C	1.0	n/a	n/a	1.0	0.248	Gram/Gram_run-02/CoM06b.wav	1.0	1	0.998
250.941	6.968999999999999	G_F	2.0	n/a	n/a	2.0	3.675	Gram/Gram_run-02/stereo_2MF54U1.wav	2.0	1	3.105
257.913	7.6	G_G	1.0	n/a	n/a	1.0	4.38	Gram/Gram_run-02/stereo_2MF49G1.wav	1.0	1	2.191
