onset	duration	trial_type	correct	window1_response	window1_RT	window2_response	window2_RT	stim_file	calculated_response	calculated_accuracy	calculated_RT
1.084	4.2010000000000005	S_U	2.0	n/a	n/a	2.0	1.272	Sem/Sem_run-02/stereo_1SU33A0.wav	2.0	1	1.022
5.287000000000001	3.486	S_U	2.0	n/a	n/a	2.0	1.194	Sem/Sem_run-02/stereo_2SU85A0.wav	2.0	1	0.944
8.773	3.8539999999999996	S_H	1.0	n/a	n/a	1.0	1.207	Sem/Sem_run-02/stereo_2SH50A0.wav	1.0	1	0.9570000000000001
12.643	3.454	S_C	1.0	1.0	0.614	1.0	0.45799999999999996	Sem/Sem_run-02/ContS08.wav	1.0	1	0.614
16.112000000000002	4.33	S_H	1.0	n/a	n/a	1.0	1.46	Sem/Sem_run-02/stereo_1SH10A0.wav	1.0	1	1.21
20.449	3.872	S_L	1.0	n/a	n/a	1.0	1.052	Sem/Sem_run-02/stereo_2SL61A0.wav	1.0	1	0.802
24.335	3.885	S_L	1.0	n/a	n/a	1.0	0.77	Sem/Sem_run-02/stereo_1SL23A0.wav	1.0	1	0.52
28.221	4.2	S_U	2.0	n/a	n/a	2.0	1.208	Sem/Sem_run-02/stereo_1SU42A0.wav	2.0	1	0.958
32.425	3.321	S_L	1.0	n/a	n/a	1.0	0.966	Sem/Sem_run-02/stereo_1SL16A0.wav	1.0	1	0.716
35.761	3.59	S_C	1.0	1.0	0.436	1.0	0.32	Sem/Sem_run-02/ContS26.wav	1.0	1	0.436
39.363	4.4	S_H	1.0	n/a	n/a	1.0	1.147	Sem/Sem_run-02/stereo_2SH60A0.wav	1.0	1	0.897
43.767	4.311	S_L	1.0	n/a	n/a	1.0	1.469	Sem/Sem_run-02/stereo_2SL75A0.wav	1.0	1	1.219
48.087	3.912	S_H	1.0	n/a	n/a	1.0	0.889	Sem/Sem_run-02/stereo_2SH59A0.wav	1.0	1	0.639
52.006	4.4	S_U	2.0	n/a	n/a	2.0	1.3159999999999998	Sem/Sem_run-02/stereo_2SU84A0.wav	2.0	1	1.0659999999999998
56.41	3.4210000000000003	S_U	2.0	n/a	n/a	2.0	1.306	Sem/Sem_run-02/stereo_1SU43A0.wav	2.0	1	1.056
59.846	3.8539999999999996	S_C	1.0	1.0	0.44799999999999995	1.0	0.434	Sem/Sem_run-02/ContS02.wav	1.0	1	0.448
63.715	4.37	S_L	1.0	n/a	n/a	1.0	0.976	Sem/Sem_run-02/stereo_1SL19A0.wav	1.0	1	0.726
68.085	3.862	S_L	1.0	n/a	n/a	1.0	1.395	Sem/Sem_run-02/stereo_1SL18A0.wav	1.0	1	1.145
71.955	4.462	S_C	1.0	1.0	0.556	1.0	0.469	Sem/Sem_run-02/ContS22.wav	1.0	1	0.556
76.425	3.406	S_L	1.0	n/a	n/a	1.0	1.652	Sem/Sem_run-02/stereo_1SL21A0.wav	1.0	1	1.402
79.845	3.355	S_U	2.0	n/a	n/a	2.0	1.2770000000000001	Sem/Sem_run-02/stereo_1SU36A0.wav	2.0	1	1.027
83.214	4.324	S_C	1.0	1.0	0.688	1.0	0.46	Sem/Sem_run-02/ContS04.wav	1.0	1	0.688
87.55	4.253	S_L	1.0	n/a	n/a	1.0	1.656	Sem/Sem_run-02/stereo_1SL24A0.wav	1.0	1	1.406
91.804	3.839	S_L	1.0	n/a	n/a	1.0	0.802	Sem/Sem_run-02/stereo_2SL70A0.wav	1.0	1	0.552
95.657	4.395	S_C	1.0	1.0	0.599	1.0	0.516	Sem/Sem_run-02/ContS14.wav	1.0	1	0.599
100.06	3.8739999999999997	S_H	1.0	n/a	n/a	1.0	1.2209999999999999	Sem/Sem_run-02/stereo_1SH09A0.wav	1.0	1	0.9710000000000001
103.946	3.75	S_U	2.0	n/a	n/a	n/a	n/a	Sem/Sem_run-02/stereo_1SU32A0.wav	n/a	0	n/a
107.699	3.641	S_C	1.0	1.0	0.67	1.0	0.439	Sem/Sem_run-02/ContS34.wav	1.0	1	0.67
111.352	3.338	S_U	2.0	n/a	n/a	2.0	1.605	Sem/Sem_run-02/stereo_1SU31A0.wav	2.0	1	1.355
114.705	3.45	S_L	1.0	n/a	n/a	1.0	1.891	Sem/Sem_run-02/stereo_2SL68A0.wav	1.0	1	1.641
118.157	3.8510000000000004	S_H	1.0	n/a	n/a	1.0	0.9329999999999999	Sem/Sem_run-02/stereo_1SH14A0.wav	1.0	1	0.683
122.01	3.459	S_H	1.0	n/a	n/a	1.0	1.452	Sem/Sem_run-02/stereo_1SH01A0.wav	1.0	1	1.202
125.48	3.512	S_C	1.0	1.0	0.608	1.0	0.44	Sem/Sem_run-02/ContS16.wav	1.0	1	0.608
128.999	3.489	S_H	1.0	n/a	n/a	1.0	1.107	Sem/Sem_run-02/stereo_1SH12A0.wav	1.0	1	0.857
132.502	3.8489999999999998	S_U	2.0	n/a	n/a	2.0	1.475	Sem/Sem_run-02/stereo_2SU86A0.wav	2.0	1	1.225
136.355	3.46	S_L	1.0	n/a	n/a	1.0	1.051	Sem/Sem_run-02/stereo_1SL28A0.wav	1.0	1	0.8009999999999999
139.82399999999998	4.53	S_C	1.0	1.0	0.446	1.0	0.255	Sem/Sem_run-02/ContS32.wav	1.0	1	0.446
144.361	4.351	S_H	1.0	n/a	n/a	1.0	1.036	Sem/Sem_run-02/stereo_2SH52A0.wav	1.0	1	0.786
148.714	3.48	S_H	1.0	n/a	n/a	1.0	1.3130000000000002	Sem/Sem_run-02/stereo_2SH47A0.wav	1.0	1	1.0630000000000002
152.2	3.3	S_H	1.0	n/a	n/a	1.0	1.1059999999999999	Sem/Sem_run-02/stereo_2SH53A0.wav	1.0	1	0.8560000000000001
155.503	3.847	S_U	2.0	n/a	n/a	2.0	1.754	Sem/Sem_run-02/stereo_1SU39A0.wav	2.0	1	1.504
159.356	3.923	S_C	1.0	1.0	0.53	1.0	0.32799999999999996	Sem/Sem_run-02/ContS10.wav	1.0	1	0.53
163.292	3.7510000000000003	S_U	2.0	n/a	n/a	2.0	1.3219999999999998	Sem/Sem_run-02/stereo_2SU80A0.wav	2.0	1	1.0719999999999998
167.045	4.2	S_L	1.0	n/a	n/a	1.0	1.19	Sem/Sem_run-02/stereo_2SL66A0.wav	1.0	1	0.94
171.248	3.99	S_C	1.0	1.0	0.741	1.0	0.609	Sem/Sem_run-02/ContS20.wav	1.0	1	0.741
175.25099999999995	4.041	S_C	1.0	1.0	0.7290000000000001	1.0	0.465	Sem/Sem_run-02/ContS28.wav	1.0	1	0.7290000000000001
179.305	4.2	S_U	2.0	n/a	n/a	1.0	1.2890000000000001	Sem/Sem_run-02/stereo_2SU89A0.wav	1.0	0	1.039
183.508	4.368	S_H	1.0	n/a	n/a	1.0	1.265	Sem/Sem_run-02/stereo_2SH46A0.wav	1.0	1	1.015
