onset	duration	trial_type	correct	window1_response	window1_RT	window2_response	window2_RT	stim_file	calculated_response	calculated_accuracy	calculated_RT
1.0907	4.2010000000000005	S_U	2.0	n/a	n/a	1.0	2.062	Sem/Sem_run-02/stereo_1SU33A0.wav	1.0	0	1.8119999999999998
5.2947	3.486	S_U	2.0	n/a	n/a	1.0	1.821	Sem/Sem_run-02/stereo_2SU85A0.wav	1.0	0	1.571
8.7817	3.8539999999999996	S_H	1.0	n/a	n/a	n/a	n/a	Sem/Sem_run-02/stereo_2SH50A0.wav	n/a	0	n/a
12.6503	3.454	S_C	1.0	n/a	n/a	1.0	0.575	Sem/Sem_run-02/ContS08.wav	1.0	1	1.325
16.1195	4.33	S_H	1.0	n/a	n/a	1.0	2.6919999999999997	Sem/Sem_run-02/stereo_1SH10A0.wav	1.0	1	2.442
20.4559	3.872	S_L	1.0	n/a	n/a	1.0	1.618	Sem/Sem_run-02/stereo_2SL61A0.wav	1.0	1	1.368
24.3421	3.885	S_L	1.0	n/a	n/a	1.0	1.11	Sem/Sem_run-02/stereo_1SL23A0.wav	1.0	1	0.8600000000000001
28.2293	4.2	S_U	2.0	n/a	n/a	1.0	0.927	Sem/Sem_run-02/stereo_1SU42A0.wav	1.0	0	0.677
32.4326	3.321	S_L	1.0	n/a	n/a	n/a	n/a	Sem/Sem_run-02/stereo_1SL16A0.wav	n/a	0	n/a
35.7684	3.59	S_C	1.0	n/a	n/a	n/a	n/a	Sem/Sem_run-02/ContS26.wav	1.0	1	3.605
39.3711	4.4	S_H	1.0	1.0	0.015	n/a	n/a	Sem/Sem_run-02/stereo_2SH60A0.wav	1.0	1	3.588
43.7745	4.311	S_L	1.0	1.0	0.188	1.0	1.392	Sem/Sem_run-02/stereo_2SL75A0.wav	1.0	1	1.142
48.0943	3.912	S_H	1.0	n/a	n/a	1.0	1.176	Sem/Sem_run-02/stereo_2SH59A0.wav	1.0	1	0.9259999999999999
52.0138	4.4	S_U	2.0	n/a	n/a	1.0	1.611	Sem/Sem_run-02/stereo_2SU84A0.wav	1.0	0	1.361
56.4171	3.4210000000000003	S_U	2.0	n/a	n/a	n/a	n/a	Sem/Sem_run-02/stereo_1SU43A0.wav	n/a	0	n/a
59.8529	3.8539999999999996	S_C	1.0	n/a	n/a	n/a	n/a	Sem/Sem_run-02/ContS02.wav	1.0	1	4.5009999999999994
63.7217	4.37	S_L	1.0	1.0	0.647	1.0	1.974	Sem/Sem_run-02/stereo_1SL19A0.wav	1.0	1	1.724
68.0927	3.862	S_L	1.0	n/a	n/a	n/a	n/a	Sem/Sem_run-02/stereo_1SL18A0.wav	n/a	0	n/a
71.9622	4.462	S_C	1.0	n/a	n/a	n/a	n/a	Sem/Sem_run-02/ContS22.wav	n/a	0	n/a
76.4321	3.406	S_L	1.0	n/a	n/a	1.0	0.897	Sem/Sem_run-02/stereo_1SL21A0.wav	1.0	1	0.647
79.8515	3.355	S_U	2.0	n/a	n/a	n/a	n/a	Sem/Sem_run-02/stereo_1SU36A0.wav	n/a	0	n/a
83.2206	4.324	S_C	1.0	n/a	n/a	1.0	1.443	Sem/Sem_run-02/ContS04.wav	1.0	1	2.193
87.5571	4.253	S_L	1.0	n/a	n/a	1.0	0.841	Sem/Sem_run-02/stereo_1SL24A0.wav	1.0	1	0.591
91.8112	3.839	S_L	1.0	n/a	n/a	1.0	1.063	Sem/Sem_run-02/stereo_2SL70A0.wav	1.0	1	0.813
95.664	4.395	S_C	1.0	n/a	n/a	1.0	0.45	Sem/Sem_run-02/ContS14.wav	1.0	1	1.2
100.0673	3.8739999999999997	S_H	1.0	n/a	n/a	1.0	1.396	Sem/Sem_run-02/stereo_1SH09A0.wav	1.0	1	1.146
103.9534	3.75	S_U	2.0	n/a	n/a	1.0	2.155	Sem/Sem_run-02/stereo_1SU32A0.wav	1.0	0	1.9049999999999998
107.7063	3.641	S_C	1.0	n/a	n/a	n/a	n/a	Sem/Sem_run-02/ContS34.wav	n/a	0	n/a
111.359	3.338	S_U	2.0	n/a	n/a	1.0	1.391	Sem/Sem_run-02/stereo_1SU31A0.wav	1.0	0	1.141
114.7114	3.45	S_L	1.0	n/a	n/a	1.0	1.855	Sem/Sem_run-02/stereo_2SL68A0.wav	1.0	1	1.605
118.164	3.8510000000000004	S_H	1.0	n/a	n/a	1.0	1.2819999999999998	Sem/Sem_run-02/stereo_1SH14A0.wav	1.0	1	1.0319999999999998
122.0178	3.459	S_H	1.0	n/a	n/a	1.0	1.46	Sem/Sem_run-02/stereo_1SH01A0.wav	1.0	1	1.21
125.4869	3.512	S_C	1.0	n/a	n/a	1.0	0.505	Sem/Sem_run-02/ContS16.wav	1.0	1	1.255
129.0062	3.489	S_H	1.0	n/a	n/a	1.0	1.153	Sem/Sem_run-02/stereo_1SH12A0.wav	1.0	1	0.903
132.5087	3.8489999999999998	S_U	2.0	n/a	n/a	2.0	1.665	Sem/Sem_run-02/stereo_2SU86A0.wav	2.0	1	1.415
136.3616	3.46	S_L	1.0	n/a	n/a	n/a	n/a	Sem/Sem_run-02/stereo_1SL28A0.wav	n/a	0	n/a
139.8308	4.53	S_C	1.0	n/a	n/a	1.0	1.656	Sem/Sem_run-02/ContS32.wav	1.0	1	2.4059999999999997
144.3674	4.351	S_H	1.0	n/a	n/a	n/a	n/a	Sem/Sem_run-02/stereo_2SH52A0.wav	n/a	0	n/a
148.7216	3.48	S_H	1.0	n/a	n/a	n/a	n/a	Sem/Sem_run-02/stereo_2SH47A0.wav	n/a	0	n/a
152.2075	3.3	S_H	1.0	n/a	n/a	1.0	1.025	Sem/Sem_run-02/stereo_2SH53A0.wav	1.0	1	0.7749999999999999
155.5099	3.847	S_U	2.0	n/a	n/a	1.0	1.327	Sem/Sem_run-02/stereo_1SU39A0.wav	1.0	0	1.077
159.3627	3.923	S_C	1.0	n/a	n/a	1.0	0.28	Sem/Sem_run-02/ContS10.wav	1.0	1	1.03
163.2989	3.7510000000000003	S_U	2.0	n/a	n/a	1.0	1.317	Sem/Sem_run-02/stereo_2SU80A0.wav	1.0	0	1.067
167.0527	4.2	S_L	1.0	n/a	n/a	1.0	1.222	Sem/Sem_run-02/stereo_2SL66A0.wav	1.0	1	0.972
171.2559	3.99	S_C	1.0	n/a	n/a	1.0	0.619	Sem/Sem_run-02/ContS20.wav	1.0	1	1.369
175.2588	4.041	S_C	1.0	n/a	n/a	1.0	0.196	Sem/Sem_run-02/ContS28.wav	1.0	1	0.946
179.3117	4.2	S_U	2.0	n/a	n/a	2.0	1.5590000000000002	Sem/Sem_run-02/stereo_2SU89A0.wav	2.0	1	1.3090000000000002
183.5149	4.368	S_H	1.0	n/a	n/a	1.0	1.09	Sem/Sem_run-02/stereo_2SH46A0.wav	1.0	1	0.8400000000000001
