onset	duration	trial_type	correct	window1_response	window1_RT	window2_response	window2_RT	stim_file	calculated_response	calculated_accuracy	calculated_RT
1.0915	6.895	G_F	2.0	n/a	n/a	2.0	2.681	Gram/Gram_run-01/stereo_2MF57U2.wav	2.0	1	3.431
7.9964	7.175	G_F	2.0	n/a	n/a	2.0	2.761	Gram/Gram_run-01/stereo_1MF15U3.wav	2.0	1	3.511
15.1851	6.5070000000000014	G_G	1.0	n/a	n/a	1.0	3.755	Gram/Gram_run-01/stereo_1MF11G2.wav	1.0	1	2.5749999999999997
21.7065	6.505	G_C	1.0	n/a	n/a	1.0	0.29	Gram/Gram_run-01/CoM09d.wav	1.0	1	1.04
28.2123	6.9479999999999995	G_F	2.0	n/a	n/a	1.0	3.958	Gram/Gram_run-01/stereo_2MF68U4.wav	1.0	0	3.232
35.1675	5.541	G_P	2.0	n/a	n/a	2.0	2.804	Gram/Gram_run-01/stereo_1MP37U3.wav	2.0	1	1.7689999999999997
40.7217	5.9479999999999995	G_G	1.0	n/a	n/a	n/a	n/a	Gram/Gram_run-01/stereo_2MF50G1.wav	n/a	0	n/a
46.6761	6.013	G_F	2.0	n/a	n/a	2.0	3.535	Gram/Gram_run-01/stereo_1MF05U1.wav	2.0	1	2.9330000000000003
52.6972	7.87	G_C	1.0	n/a	n/a	1.0	0.059000000000000004	Gram/Gram_run-01/CoM01l.wav	1.0	1	0.8089999999999999
60.5705	6.4979999999999976	G_G	1.0	n/a	n/a	2.0	4.232	Gram/Gram_run-01/stereo_1MF23G4.wav	2.0	0	2.051
67.0753	6.184	G_F	2.0	n/a	n/a	2.0	1.933	Gram/Gram_run-01/stereo_2MF55U2.wav	2.0	1	2.683
73.264	6.83	G_C	1.0	n/a	n/a	1.0	0.596	Gram/Gram_run-01/CoM10l.wav	1.0	1	1.346
80.1023	7.505	G_G	1.0	n/a	n/a	2.0	5.551	Gram/Gram_run-01/stereo_2MP96G4.wav	2.0	0	3.1560000000000006
87.6086	7.1370000000000005	G_G	1.0	n/a	n/a	1.0	4.84	Gram/Gram_run-01/stereo_1MP47G4.wav	1.0	1	2.373
94.748	6.694	G_F	2.0	n/a	n/a	2.0	2.461	Gram/Gram_run-01/stereo_2MF61U3.wav	2.0	1	3.211
101.4529	5.39	G_C	1.0	n/a	n/a	1.0	0.885	Gram/Gram_run-01/CoM01d.wav	1.0	1	1.635
106.8569	6.5760000000000005	G_G	1.0	n/a	n/a	1.0	3.93	Gram/Gram_run-01/stereo_1MP35G2.wav	1.0	1	2.926
113.4451	5.3389999999999995	G_F	2.0	n/a	n/a	1.0	3.67	Gram/Gram_run-01/stereo_2MF69U4.wav	1.0	0	2.9320000000000004
118.7989	7.94	G_C	1.0	n/a	n/a	1.0	0.336	Gram/Gram_run-01/CoM08l.wav	1.0	1	1.086
126.7476	6.006	G_P	2.0	n/a	n/a	2.0	3.603	Gram/Gram_run-01/stereo_1MP26U1.wav	2.0	1	1.6270000000000002
132.7683	8.422	G_F	2.0	n/a	n/a	2.0	4.291	Gram/Gram_run-01/stereo_1MF06U1.wav	2.0	1	3.6959999999999997
141.1919	7.885	G_P	2.0	n/a	n/a	2.0	3.082	Gram/Gram_run-01/stereo_2MP81U2.wav	2.0	1	2.1969999999999996
149.082	6.1270000000000024	G_G	1.0	n/a	n/a	2.0	3.2769999999999997	Gram/Gram_run-01/stereo_2MP83G2.wav	2.0	0	2.2170000000000005
155.2198	5.765	G_C	1.0	n/a	n/a	1.0	0.621	Gram/Gram_run-01/CoM02b.wav	1.0	1	1.371
160.9908	6.706	G_P	2.0	n/a	n/a	2.0	4.7010000000000005	Gram/Gram_run-01/stereo_2MP93U4.wav	2.0	1	2.301000000000001
167.7098	6.61	G_P	2.0	n/a	n/a	1.0	3.832	Gram/Gram_run-01/stereo_1MP28U1.wav	1.0	0	1.7170000000000005
174.3313	6.63	G_C	1.0	n/a	n/a	1.0	0.507	Gram/Gram_run-01/CoM04b.wav	1.0	1	1.2570000000000001
180.9695	5.665	G_P	2.0	n/a	n/a	2.0	3.603	Gram/Gram_run-01/stereo_1MP27U1.wav	2.0	1	1.6010000000000004
186.6404	7.55	G_G	1.0	n/a	n/a	1.0	4.04	Gram/Gram_run-01/stereo_2MP77G1.wav	1.0	1	1.9409999999999998
194.1961	6.51	G_C	1.0	n/a	n/a	1.0	0.82	Gram/Gram_run-01/CoM03e.wav	1.0	1	1.5699999999999998
200.7177	6.98	G_P	2.0	n/a	n/a	2.0	4.015	Gram/Gram_run-01/stereo_2MP92U4.wav	2.0	1	1.6659999999999995
207.7062	7.047999999999999	G_G	1.0	n/a	n/a	1.0	3.054	Gram/Gram_run-01/stereo_1MF12G2.wav	1.0	1	2.0199999999999996
214.7613	5.574	G_F	2.0	n/a	n/a	2.0	3.682	Gram/Gram_run-01/stereo_1MF04U1.wav	2.0	1	3.094
220.3488	5.67	G_C	1.0	n/a	n/a	1.0	0.5529999999999999	Gram/Gram_run-01/CoM07d.wav	1.0	1	1.303
226.0205	6.6160000000000005	G_P	2.0	n/a	n/a	2.0	2.932	Gram/Gram_run-01/stereo_1MP39U3.wav	2.0	1	1.928
232.6421	5.695	G_P	2.0	n/a	n/a	2.0	3.2539999999999996	Gram/Gram_run-01/stereo_2MP82U2.wav	2.0	1	2.333
238.3464	6.6270000000000024	G_F	2.0	n/a	n/a	1.0	3.571	Gram/Gram_run-01/stereo_1MF13U3.wav	1.0	0	4.321
244.9846	7.145	G_C	1.0	n/a	n/a	1.0	0.795	Gram/Gram_run-01/CoM08e.wav	1.0	1	1.545
252.1398	6.805	G_G	1.0	n/a	n/a	2.0	3.8930000000000002	Gram/Gram_run-01/stereo_1MP41G3.wav	2.0	0	2.5869999999999997
258.9458	7.519	G_P	2.0	n/a	n/a	2.0	3.6060000000000003	Gram/Gram_run-01/stereo_1MP38U3.wav	2.0	1	2.367
