onset	duration	trial_type	correct	window1_response	window1_RT	window2_response	window2_RT	stim_file	calculated_response	calculated_accuracy	calculated_RT
1.101	3.4539999999999997	P_R	1.0	n/a	n/a	1.0	1.75	Phon/Phon_run-01/stereo_PR01.wav	1.0	1	1.5
4.5710000000000015	3.767	P_O	1.0	n/a	n/a	1.0	1.527	Phon/Phon_run-01/PC018.wav	1.0	1	1.277
8.34	3.391	P_O	1.0	n/a	n/a	1.0	1.972	Phon/Phon_run-01/PC009.wav	1.0	1	1.722
11.743	4.374	P_C	1.0	1.0	0.69	1.0	0.583	Phon/Phon_run-01/ContS11.wav	1.0	1	0.69
16.13	3.345	P_U	2.0	n/a	n/a	2.0	1.238	Phon/Phon_run-01/PM002.wav	2.0	1	0.988
19.483	4.4510000000000005	P_C	1.0	n/a	n/a	1.0	0.052000000000000005	Phon/Phon_run-01/ContS21.wav	1.0	1	0.802
23.936999999999998	4.382	P_O	1.0	n/a	n/a	2.0	1.67	Phon/Phon_run-01/PC005.wav	2.0	0	1.42
28.324	3.3	P_U	2.0	n/a	n/a	2.0	1.645	Phon/Phon_run-01/stereo_PU26.wav	2.0	1	1.395
31.625999999999998	4.324	P_C	1.0	1.0	0.619	1.0	0.483	Phon/Phon_run-01/ContS03.wav	1.0	1	0.619
35.963	4.378	P_R	1.0	n/a	n/a	1.0	1.754	Phon/Phon_run-01/stereo_PR29.wav	1.0	1	1.504
40.35	3.4810000000000003	P_U	2.0	n/a	n/a	2.0	1.325	Phon/Phon_run-01/PM020.wav	2.0	1	1.075
43.83600000000001	4.393	P_O	1.0	n/a	n/a	1.0	1.7919999999999998	Phon/Phon_run-01/PC027.wav	1.0	1	1.5419999999999998
48.24	4.4	P_R	1.0	n/a	n/a	1.0	1.57	Phon/Phon_run-01/stereo_PR11.wav	1.0	1	1.32
52.643	3.884	P_C	1.0	1.0	0.598	1.0	0.542	Phon/Phon_run-01/ContS05.wav	1.0	1	0.598
56.53	3.891	P_U	2.0	n/a	n/a	1.0	1.297	Phon/Phon_run-01/stereo_PU28.wav	1.0	0	1.047
60.433	4.4	P_O	1.0	n/a	n/a	1.0	1.4869999999999999	Phon/Phon_run-01/PC013.wav	1.0	1	1.237
64.837	3.513	P_C	1.0	2.0	0.595	1.0	0.426	Phon/Phon_run-01/ContS17.wav	2.0	0	0.595
68.35600000000001	4.4	P_U	2.0	n/a	n/a	2.0	1.564	Phon/Phon_run-01/PM027.wav	2.0	1	1.314
72.76	4.4	P_O	1.0	n/a	n/a	1.0	1.3319999999999999	Phon/Phon_run-01/PC021.wav	1.0	1	1.082
77.163	4.496	P_C	1.0	n/a	n/a	1.0	0.23399999999999999	Phon/Phon_run-01/ContS29.wav	1.0	1	0.984
81.667	3.3680000000000003	P_R	1.0	n/a	n/a	2.0	1.545	Phon/Phon_run-01/stereo_PR25.wav	2.0	0	1.295
85.037	3.95	P_O	1.0	n/a	n/a	1.0	1.338	Phon/Phon_run-01/PC012.wav	1.0	1	1.088
88.99	3.95	P_U	2.0	n/a	n/a	2.0	2.209	Phon/Phon_run-01/PM003.wav	2.0	1	1.959
92.943	3.939	P_O	1.0	n/a	n/a	1.0	1.3230000000000002	Phon/Phon_run-01/PC004.wav	1.0	1	1.0730000000000002
96.896	3.59	P_C	1.0	1.0	0.703	1.0	0.778	Phon/Phon_run-01/ContS27.wav	1.0	1	0.703
100.499	4.296	P_U	2.0	n/a	n/a	2.0	1.415	Phon/Phon_run-01/stereo_PU21.wav	2.0	1	1.165
104.803	3.862	P_R	1.0	n/a	n/a	1.0	1.359	Phon/Phon_run-01/stereo_PR26.wav	1.0	1	1.109
108.67299999999999	3.95	P_O	1.0	n/a	n/a	2.0	1.5619999999999998	Phon/Phon_run-01/PC026.wav	2.0	0	1.3119999999999998
112.626	3.5	P_O	1.0	n/a	n/a	n/a	n/a	Phon/Phon_run-01/PC025.wav	n/a	0	n/a
116.12899999999999	4.013	P_C	1.0	n/a	n/a	1.0	0.217	Phon/Phon_run-01/ContS23.wav	1.0	1	0.967
120.149	3.792	P_R	1.0	n/a	n/a	1.0	1.758	Phon/Phon_run-01/stereo_PR18.wav	1.0	1	1.508
123.95200000000001	3.346	P_U	2.0	n/a	n/a	2.0	1.291	Phon/Phon_run-01/stereo_PU19.wav	2.0	1	1.041
127.305	3.891	P_R	1.0	n/a	n/a	2.0	2.3040000000000003	Phon/Phon_run-01/stereo_PR03.wav	2.0	0	2.0540000000000003
131.208	3.355	P_O	1.0	n/a	n/a	2.0	1.4680000000000002	Phon/Phon_run-01/PC003.wav	2.0	0	1.2180000000000002
134.577	3.951	P_C	1.0	n/a	n/a	1.0	0.044000000000000004	Phon/Phon_run-01/ContS15.wav	1.0	1	0.794
138.53	3.74	P_U	2.0	n/a	n/a	2.0	1.5219999999999998	Phon/Phon_run-01/stereo_PU16.wav	2.0	1	1.2719999999999998
142.283	3.95	P_R	1.0	n/a	n/a	1.0	1.507	Phon/Phon_run-01/stereo_PR10.wav	1.0	1	1.257
146.237	3.464	P_C	1.0	n/a	n/a	1.0	0.48100000000000004	Phon/Phon_run-01/ContS09.wav	1.0	1	1.2309999999999999
149.70600000000005	4.275	P_R	1.0	n/a	n/a	1.0	1.2209999999999999	Phon/Phon_run-01/stereo_PR04.wav	1.0	1	0.9710000000000001
153.993	3.95	P_U	2.0	n/a	n/a	2.0	1.35	Phon/Phon_run-01/PM023.wav	2.0	1	1.1
157.946	4.4	P_U	2.0	n/a	n/a	2.0	1.585	Phon/Phon_run-01/PM001.wav	2.0	1	1.335
162.35	3.665	P_C	1.0	n/a	n/a	1.0	0.228	Phon/Phon_run-01/ContS35.wav	1.0	1	0.978
166.02	3.463	P_O	1.0	n/a	n/a	1.0	1.37	Phon/Phon_run-01/PC017.wav	1.0	1	1.12
169.489	4.332	P_R	1.0	n/a	n/a	2.0	2.079	Phon/Phon_run-01/stereo_PR19.wav	2.0	0	1.8290000000000002
173.826	4.083	P_C	1.0	1.0	0.642	1.0	0.7	Phon/Phon_run-01/ContS33.wav	1.0	1	0.642
177.91299999999995	3.5	P_R	1.0	n/a	n/a	1.0	1.3869999999999998	Phon/Phon_run-01/stereo_PR17.wav	1.0	1	1.1369999999999998
181.416	4.2669999999999995	P_U	2.0	n/a	n/a	2.0	1.239	Phon/Phon_run-01/PM009.wav	2.0	1	0.9890000000000001
185.68599999999998	3.4389999999999996	P_R	1.0	n/a	n/a	1.0	1.252	Phon/Phon_run-01/stereo_PR09.wav	1.0	1	1.002
