onset	duration	trial_type	correct	window1_response	window1_RT	window2_response	window2_RT	stim_file	calculated_response	calculated_accuracy	calculated_RT
1.0934	7.632999999999999	G_P	2.0	n/a	n/a	n/a	n/a	Gram/Gram_run-02/stereo_1MP45U4.wav	n/a	0	n/a
8.7323	7.315	G_F	2.0	n/a	n/a	1.0	4.414	Gram/Gram_run-02/stereo_1MF20U4.wav	1.0	0	3.7039999999999993
16.0543	6.2829999999999995	G_P	2.0	n/a	n/a	2.0	3.7430000000000003	Gram/Gram_run-02/stereo_1MP34U2.wav	2.0	1	2.651
22.3421	6.195	G_C	1.0	n/a	n/a	1.0	0.218	Gram/Gram_run-02/CoM06d.wav	1.0	1	0.968
28.5465	6.221	G_G	1.0	n/a	n/a	2.0	4.949	Gram/Gram_run-02/stereo_1MF02G1.wav	2.0	0	2.909
34.769	5.801	G_F	2.0	n/a	n/a	2.0	3.1010000000000004	Gram/Gram_run-02/stereo_2MF64U3.wav	2.0	1	3.8510000000000004
40.5743	6.78	G_C	1.0	1.0	0.625	n/a	n/a	Gram/Gram_run-02/CoM07l.wav	1.0	1	0.625
47.3625	6.084	G_F	2.0	n/a	n/a	1.0	3.717	Gram/Gram_run-02/stereo_2MF56U2.wav	1.0	0	4.4670000000000005
53.4512	7.5470000000000015	G_F	2.0	n/a	n/a	2.0	4.0360000000000005	Gram/Gram_run-02/stereo_1MF21U4.wav	2.0	1	3.285
61.0065	6.482	G_G	1.0	n/a	n/a	n/a	n/a	Gram/Gram_run-02/stereo_1MF24G4.wav	n/a	0	n/a
67.4946	6.7810000000000015	G_P	2.0	n/a	n/a	1.0	4.968999999999999	Gram/Gram_run-02/stereo_2MP76U1.wav	1.0	0	2.706999999999999
74.2828	6.643	G_P	2.0	n/a	n/a	2.0	4.003	Gram/Gram_run-02/stereo_2MP80U2.wav	2.0	1	3.047
80.9376	7.69	G_C	1.0	n/a	n/a	1.0	0.252	Gram/Gram_run-02/CoM06e.wav	1.0	1	1.002
88.639	6.352	G_F	2.0	n/a	n/a	2.0	3.5780000000000003	Gram/Gram_run-02/stereo_2MF63U3.wav	2.0	1	4.328
94.9947	5.801	G_G	1.0	n/a	n/a	1.0	3.647	Gram/Gram_run-02/stereo_1MF18G3.wav	1.0	1	2.264
100.8001	7.1129999999999995	G_P	2.0	n/a	n/a	1.0	5.67	Gram/Gram_run-02/stereo_1MP44U4.wav	1.0	0	3.3129999999999997
107.9218	6.78	G_C	1.0	n/a	n/a	1.0	0.451	Gram/Gram_run-02/CoM05b.wav	1.0	1	1.201
114.7101	6.7360000000000015	G_F	2.0	n/a	n/a	2.0	4.476	Gram/Gram_run-02/stereo_2MF58U2.wav	2.0	1	5.226
121.4494	6.0889999999999995	G_P	2.0	n/a	n/a	2.0	4.17	Gram/Gram_run-02/stereo_2MP87U3.wav	2.0	1	2.958
127.5529	7.637	G_P	2.0	n/a	n/a	1.0	4.055	Gram/Gram_run-02/stereo_2MP73U1.wav	1.0	0	2.0279999999999996
135.1929	7.305	G_C	1.0	n/a	n/a	1.0	0.276	Gram/Gram_run-02/CoM02l.wav	1.0	1	1.026
142.4994	5.983	G_G	1.0	n/a	n/a	n/a	n/a	Gram/Gram_run-02/stereo_1MP42G3.wav	n/a	0	n/a
148.4871	5.36	G_P	2.0	n/a	n/a	1.0	2.908	Gram/Gram_run-02/stereo_1MP32U2.wav	1.0	0	1.9019999999999997
153.8576	7.145	G_C	1.0	n/a	n/a	1.0	0.145	Gram/Gram_run-02/CoM09e.wav	1.0	1	0.895
161.0128	6.28	G_F	2.0	n/a	n/a	2.0	4.228	Gram/Gram_run-02/stereo_1MF19U4.wav	2.0	1	3.542
167.3005	6.63	G_C	1.0	n/a	n/a	1.0	0.317	Gram/Gram_run-02/CoM07b.wav	1.0	1	1.067
173.9386	7.195	G_G	1.0	n/a	n/a	1.0	3.234	Gram/Gram_run-02/stereo_2MP89G3.wav	1.0	1	1.896
181.1437	5.1739999999999995	G_F	2.0	n/a	n/a	2.0	2.938	Gram/Gram_run-02/stereo_1MF07U2.wav	2.0	1	3.688
186.3308	6.944	G_P	2.0	n/a	n/a	1.0	2.3569999999999998	Gram/Gram_run-02/stereo_2MP88U3.wav	1.0	0	1.3140000000000003
193.2858	6.0889999999999995	G_G	1.0	n/a	n/a	2.0	3.255	Gram/Gram_run-02/stereo_2MF66G3.wav	2.0	0	1.8810000000000002
199.3896	6.5	G_C	1.0	n/a	n/a	1.0	0.46399999999999997	Gram/Gram_run-02/CoM01e.wav	1.0	1	1.214
205.8946	6.43	G_P	2.0	n/a	n/a	1.0	3.71	Gram/Gram_run-02/stereo_1MP43U4.wav	1.0	0	1.428
212.3325	6.19	G_G	1.0	n/a	n/a	1.0	2.467	Gram/Gram_run-02/stereo_2MP84G2.wav	1.0	1	1.5350000000000001
218.537	7.114	G_G	1.0	n/a	n/a	1.0	4.334	Gram/Gram_run-02/stereo_1MP29G1.wav	1.0	1	2.1459999999999995
225.6587	6.731	G_F	2.0	n/a	n/a	2.0	3.67	Gram/Gram_run-02/stereo_2MF53U1.wav	2.0	1	3.0989999999999998
232.3969	6.015	G_C	1.0	n/a	n/a	1.0	0.266	Gram/Gram_run-02/CoM02d.wav	1.0	1	1.016
238.4179	7.17	G_G	1.0	n/a	n/a	1.0	4.367	Gram/Gram_run-02/stereo_2MF71G4.wav	1.0	1	2.1179999999999994
245.5909	5.33	G_C	1.0	n/a	n/a	1.0	0.392	Gram/Gram_run-02/CoM06b.wav	1.0	1	1.142
250.9316	6.9689999999999985	G_F	2.0	n/a	n/a	2.0	5.2	Gram/Gram_run-02/stereo_2MF54U1.wav	2.0	1	4.630000000000001
257.9045	7.6	G_G	1.0	n/a	n/a	1.0	3.8680000000000003	Gram/Gram_run-02/stereo_2MF49G1.wav	1.0	1	1.6789999999999998
