onset	duration	trial_type	correct	window1_response	window1_RT	window2_response	window2_RT	stim_file	calculated_response	calculated_accuracy	calculated_RT
1.0924	3.5	P_R	1.0	n/a	n/a	1.0	1.09	Phon/Phon_run-02/stereo_PR20.wav	1.0	1	0.8400000000000001
4.595	4.235	P_O	1.0	n/a	n/a	1.0	1.094	Phon/Phon_run-02/PC034.wav	1.0	1	0.8440000000000001
8.8325	3.375	P_R	1.0	n/a	n/a	1.0	0.977	Phon/Phon_run-02/stereo_PR13.wav	1.0	1	0.727
12.2183	3.474	P_C	1.0	n/a	n/a	1.0	0.004	Phon/Phon_run-02/ContS12.wav	1.0	1	0.754
15.7041	3.875	P_U	2.0	n/a	n/a	2.0	1.213	Phon/Phon_run-02/PM025.wav	2.0	1	0.9630000000000001
19.5903	3.726	P_R	1.0	n/a	n/a	1.0	0.978	Phon/Phon_run-02/stereo_PR22.wav	1.0	1	0.728
23.3263	3.451	P_O	1.0	n/a	n/a	1.0	1.3769999999999998	Phon/Phon_run-02/PC014.wav	1.0	1	1.1269999999999998
26.7799	3.779	P_C	1.0	1.0	0.725	1.0	0.43	Phon/Phon_run-02/ContS02.wav	1.0	1	0.725
30.566	3.821	P_U	2.0	n/a	n/a	2.0	1.436	Phon/Phon_run-02/stereo_PU18.wav	2.0	1	1.186
34.402	3.49	P_U	2.0	n/a	n/a	2.0	1.27	Phon/Phon_run-02/stereo_PU12.wav	2.0	1	1.02
37.9046	4.38	P_C	1.0	1.0	0.638	1.0	0.41600000000000004	Phon/Phon_run-02/ContS32.wav	1.0	1	0.638
42.291000000000004	4.0969999999999995	P_R	1.0	n/a	n/a	1.0	1.171	Phon/Phon_run-02/stereo_PR16.wav	1.0	1	0.921
46.394	3.5	P_O	1.0	n/a	n/a	1.0	1.1340000000000001	Phon/Phon_run-02/PC022.wav	1.0	1	0.8840000000000001
49.8966	4.0760000000000005	P_R	1.0	n/a	n/a	1.0	1.168	Phon/Phon_run-02/stereo_PR08.wav	1.0	1	0.9179999999999999
53.983000000000004	3.5	P_O	1.0	n/a	n/a	1.0	1.234	Phon/Phon_run-02/PC028.wav	1.0	1	0.984
57.4856	3.5	P_U	2.0	n/a	n/a	2.0	1.8330000000000002	Phon/Phon_run-02/stereo_PU27.wav	2.0	1	1.5830000000000002
60.9881	3.819	P_C	1.0	1.0	0.727	1.0	0.6729999999999999	Phon/Phon_run-02/ContS06.wav	1.0	1	0.727
64.8086	4.25	P_O	1.0	n/a	n/a	1.0	1.1740000000000002	Phon/Phon_run-02/PC031.wav	1.0	1	0.9240000000000002
69.062	3.662	P_C	1.0	1.0	0.551	1.0	0.474	Phon/Phon_run-02/ContS36.wav	1.0	1	0.551
72.7312	3.823	P_O	1.0	n/a	n/a	1.0	1.1520000000000001	Phon/Phon_run-02/PC023.wav	1.0	1	0.9020000000000001
76.5674	4.323	P_C	1.0	1.0	0.59	1.0	0.397	Phon/Phon_run-02/ContS24.wav	1.0	1	0.59
80.9038	3.865	P_U	2.0	n/a	n/a	2.0	1.27	Phon/Phon_run-02/PM004.wav	2.0	1	1.02
84.7733	3.875	P_O	1.0	n/a	n/a	1.0	1.06	Phon/Phon_run-02/PC007.wav	1.0	1	0.81
88.6594	4.25	P_U	2.0	n/a	n/a	1.0	1.062	Phon/Phon_run-02/PM011.wav	1.0	0	0.812
92.9126	4.362	P_C	1.0	1.0	0.444	1.0	0.597	Phon/Phon_run-02/ContS30.wav	1.0	1	0.444
97.2825	3.875	P_O	1.0	n/a	n/a	1.0	1.3519999999999999	Phon/Phon_run-02/PC030.wav	1.0	1	1.1019999999999999
101.1687	3.3360000000000003	P_R	1.0	n/a	n/a	1.0	1.02	Phon/Phon_run-02/stereo_PR05.wav	1.0	1	0.77
104.5077	4.113	P_U	2.0	n/a	n/a	2.0	1.137	Phon/Phon_run-02/stereo_PU01.wav	2.0	1	0.887
108.6273	4.1739999999999995	P_U	2.0	n/a	n/a	2.0	1.4880000000000002	Phon/Phon_run-02/PM029.wav	2.0	1	1.2380000000000002
112.8137	3.4539999999999997	P_C	1.0	1.0	0.595	1.0	0.585	Phon/Phon_run-02/ContS08.wav	1.0	1	0.595
116.2828	3.446	P_R	1.0	n/a	n/a	1.0	1.493	Phon/Phon_run-02/stereo_PR30.wav	1.0	1	1.243
119.7352	3.85	P_R	1.0	n/a	n/a	1.0	1.072	Phon/Phon_run-02/stereo_PR07.wav	1.0	1	0.8220000000000001
123.588	3.438	P_U	2.0	n/a	n/a	2.0	1.157	Phon/Phon_run-02/stereo_PU02.wav	2.0	1	0.907
127.0406	3.915	P_C	1.0	1.0	0.637	1.0	0.456	Phon/Phon_run-02/ContS20.wav	1.0	1	0.637
130.9601	3.487	P_U	2.0	n/a	n/a	2.0	2.126	Phon/Phon_run-02/PM021.wav	2.0	1	1.876
134.46200000000002	3.965	P_C	1.0	n/a	n/a	1.0	0.092	Phon/Phon_run-02/ContS26.wav	1.0	1	0.842
138.4315	3.792	P_R	1.0	n/a	n/a	1.0	1.256	Phon/Phon_run-02/stereo_PR31.wav	1.0	1	1.006
142.2343	4.135	P_O	1.0	n/a	n/a	1.0	1.331	Phon/Phon_run-02/PC024.wav	1.0	1	1.081
146.3717	3.875	P_U	2.0	n/a	n/a	2.0	1.126	Phon/Phon_run-02/PM010.wav	2.0	1	0.8759999999999999
150.2579	3.875	P_O	1.0	n/a	n/a	1.0	1.045	Phon/Phon_run-02/PC015.wav	1.0	1	0.7949999999999999
154.144	4.245	P_C	1.0	n/a	n/a	1.0	0.028999999999999998	Phon/Phon_run-02/ContS14.wav	1.0	1	0.779
158.3971	3.854	P_R	1.0	n/a	n/a	1.0	1.315	Phon/Phon_run-02/stereo_PR14.wav	1.0	1	1.065
162.2662	4.239	P_O	1.0	n/a	n/a	1.0	1.101	Phon/Phon_run-02/PC008.wav	1.0	1	0.851
166.5192	4.25	P_U	2.0	n/a	n/a	2.0	1.496	Phon/Phon_run-02/stereo_PU11.wav	2.0	1	1.246
170.7726	3.523	P_C	1.0	1.0	0.664	1.0	0.3670000000000001	Phon/Phon_run-02/ContS18.wav	1.0	1	0.664
174.3085	3.429	P_O	1.0	n/a	n/a	1.0	1.138	Phon/Phon_run-02/PC006.wav	1.0	1	0.8879999999999999
177.7443	4.18	P_R	1.0	n/a	n/a	1.0	1.6980000000000002	Phon/Phon_run-02/stereo_PR32.wav	1.0	1	1.4480000000000002
181.9307	4.104	P_R	1.0	n/a	n/a	1.0	1.042	Phon/Phon_run-02/stereo_PR24.wav	1.0	1	0.792
