onset	duration	trial_type	correct	window1_response	window1_RT	window2_response	window2_RT	stim_file	calculated_response	calculated_accuracy	calculated_RT
1.0918	4.2	S_U	2.0	n/a	n/a	n/a	n/a	Sem/Sem_run-01/stereo_1SU41A0.wav	n/a	0	n/a
5.2953	3.596	S_C	1.0	n/a	n/a	1.0	0.159	Sem/Sem_run-01/ContS29.wav	1.0	1	0.909
8.898	3.425	S_U	2.0	n/a	n/a	2.0	1.895	Sem/Sem_run-01/stereo_2SU87A0.wav	2.0	1	1.645
12.3338	3.933	S_H	1.0	n/a	n/a	1.0	1.2590000000000001	Sem/Sem_run-01/stereo_1SH13A0.wav	1.0	1	1.009
16.2699	4.323	S_H	1.0	n/a	n/a	1.0	1.239	Sem/Sem_run-01/stereo_1SH05A0.wav	1.0	1	0.9890000000000001
20.6064	4.073	S_C	1.0	n/a	n/a	1.0	0.174	Sem/Sem_run-01/ContS31.wav	1.0	1	0.9239999999999999
24.6927	3.869	S_L	1.0	n/a	n/a	1.0	1.439	Sem/Sem_run-01/stereo_2SL63A0.wav	1.0	1	1.189
28.5634	3.75	S_L	1.0	n/a	n/a	1.0	1.5430000000000001	Sem/Sem_run-01/stereo_1SL29A0.wav	1.0	1	1.293
32.3161	4.3660000000000005	S_U	2.0	n/a	n/a	2.0	1.251	Sem/Sem_run-01/stereo_2SU78A0.wav	2.0	1	1.001
36.6859	3.3	S_L	1.0	n/a	n/a	1.0	2.15	Sem/Sem_run-01/stereo_1SL17A0.wav	1.0	1	1.9
39.9885	3.884	S_C	1.0	n/a	n/a	1.0	0.337	Sem/Sem_run-01/ContS05.wav	1.0	1	1.087
43.8755	4.371	S_H	1.0	n/a	n/a	1.0	1.035	Sem/Sem_run-01/stereo_2SH58A0.wav	1.0	1	0.7849999999999999
48.2606	4.329	S_L	1.0	n/a	n/a	1.0	1.5830000000000002	Sem/Sem_run-01/stereo_2SL72A0.wav	1.0	1	1.3330000000000002
52.5971	3.94	S_H	1.0	n/a	n/a	1.0	2.231	Sem/Sem_run-01/stereo_2SH57A0.wav	1.0	1	1.9809999999999999
56.55	4.2	S_U	2.0	n/a	n/a	2.0	1.757	Sem/Sem_run-01/stereo_2SU83A0.wav	2.0	1	1.507
60.753	3.474	S_C	1.0	n/a	n/a	1.0	0.172	Sem/Sem_run-01/ContS11.wav	1.0	1	0.9219999999999999
64.2389	4.271	S_L	1.0	n/a	n/a	1.0	2.077	Sem/Sem_run-01/stereo_1SL26A0.wav	1.0	1	1.827
68.5248	3.91	S_L	1.0	n/a	n/a	1.0	1.3	Sem/Sem_run-01/stereo_1SL25A0.wav	1.0	1	1.05
72.4443	4.479	S_C	1.0	1.0	0.667	1.0	0.359	Sem/Sem_run-01/ContS25.wav	1.0	1	0.667
76.9309	3.378	S_U	2.0	n/a	n/a	2.0	1.774	Sem/Sem_run-01/stereo_2SU81A0.wav	2.0	1	1.524
80.3167	3.42	S_L	1.0	n/a	n/a	1.0	1.55	Sem/Sem_run-01/stereo_1SL27A0.wav	1.0	1	1.3
83.7479	4.3439999999999985	S_L	1.0	n/a	n/a	1.0	1.619	Sem/Sem_run-01/stereo_1SL30A0.wav	1.0	1	1.369
88.1008	3.909	S_L	1.0	n/a	n/a	1.0	1.631	Sem/Sem_run-01/stereo_2SL71A0.wav	1.0	1	1.381
92.0205	3.867	S_H	1.0	n/a	n/a	1.0	2.116	Sem/Sem_run-01/stereo_1SH04A0.wav	1.0	1	1.866
95.8902	3.828	S_U	2.0	n/a	n/a	2.0	1.571	Sem/Sem_run-01/stereo_1SU37A0.wav	2.0	1	1.321
99.7264	4.565	S_C	1.0	n/a	n/a	1.0	0.473	Sem/Sem_run-01/ContS35.wav	1.0	1	1.2229999999999999
104.2964	3.3	S_U	2.0	n/a	n/a	2.0	1.774	Sem/Sem_run-01/stereo_1SU35A0.wav	2.0	1	1.524
107.5986	3.477	S_L	1.0	n/a	n/a	1.0	1.4980000000000002	Sem/Sem_run-01/stereo_2SL65A0.wav	1.0	1	1.2480000000000002
111.0845	3.83	S_H	1.0	n/a	n/a	2.0	2.103	Sem/Sem_run-01/stereo_1SH07A0.wav	2.0	0	1.8530000000000002
114.9207	4.3439999999999985	S_C	1.0	n/a	n/a	1.0	0.2	Sem/Sem_run-01/ContS07.wav	1.0	1	0.95
119.2738	3.5	S_H	1.0	n/a	n/a	1.0	1.594	Sem/Sem_run-01/stereo_1SH03A0.wav	1.0	1	1.344
122.7765	3.919	S_U	2.0	n/a	n/a	1.0	1.8840000000000001	Sem/Sem_run-01/stereo_1SU45A0.wav	1.0	0	1.634
126.697	3.5	S_H	1.0	n/a	n/a	1.0	1.354	Sem/Sem_run-01/stereo_1SH06A0.wav	1.0	1	1.104
130.1996	3.392	S_L	1.0	n/a	n/a	1.0	1.6059999999999999	Sem/Sem_run-01/stereo_2SL62A0.wav	1.0	1	1.356
133.6021	3.54	S_C	1.0	n/a	n/a	1.0	0.213	Sem/Sem_run-01/ContS19.wav	1.0	1	0.963
137.1547	4.4	S_H	1.0	n/a	n/a	1.0	1.291	Sem/Sem_run-01/stereo_1SH15A0.wav	1.0	1	1.041
141.5578	3.342	S_H	1.0	n/a	n/a	n/a	n/a	Sem/Sem_run-01/stereo_1SH11A0.wav	n/a	0	n/a
144.9103	3.385	S_U	2.0	n/a	n/a	n/a	n/a	Sem/Sem_run-01/stereo_1SU44A0.wav	n/a	0	n/a
148.2972	3.4160000000000004	S_H	1.0	n/a	n/a	1.0	1.005	Sem/Sem_run-01/stereo_2SH56A0.wav	1.0	1	0.7549999999999999
151.7164	3.849	S_U	2.0	n/a	n/a	n/a	n/a	Sem/Sem_run-01/stereo_2SU82A0.wav	n/a	0	n/a
155.5691	3.934	S_C	1.0	n/a	n/a	1.0	0.19	Sem/Sem_run-01/ContS13.wav	1.0	1	0.94
159.506	4.309	S_L	1.0	n/a	n/a	1.0	0.8859999999999999	Sem/Sem_run-01/stereo_2SL64A0.wav	1.0	1	0.6359999999999999
163.8257	4.413	S_C	1.0	n/a	n/a	1.0	1.275	Sem/Sem_run-01/ContS17.wav	1.0	1	2.025
168.2456	4.2	S_U	2.0	n/a	n/a	2.0	1.933	Sem/Sem_run-01/stereo_2SU90A0.wav	2.0	1	1.683
172.4489	3.846	S_U	2.0	n/a	n/a	2.0	1.635	Sem/Sem_run-01/stereo_2SU88A0.wav	2.0	1	1.385
176.3017	3.3939999999999997	S_C	1.0	n/a	n/a	1.0	0.508	Sem/Sem_run-01/ContS01.wav	1.0	1	1.258
179.7041	4.013	S_C	1.0	n/a	n/a	1.0	0.069	Sem/Sem_run-01/ContS23.wav	1.0	1	0.819
183.7237	4.227	S_H	1.0	n/a	n/a	1.0	1.483	Sem/Sem_run-01/stereo_1SH08A0.wav	1.0	1	1.233
