onset	duration	trial_type	correct	window1_response	window1_RT	window2_response	window2_RT	stim_file	calculated_response	calculated_accuracy	calculated_RT
1.084	4.2	S_U	2.0	n/a	n/a	2.0	1.198	Sem/Sem_run-01/stereo_1SU41A0.wav	2.0	1	0.948
5.2879999999999985	3.596	S_C	1.0	n/a	n/a	1.0	0.38299999999999995	Sem/Sem_run-01/ContS29.wav	1.0	1	1.133
8.89	3.425	S_U	2.0	n/a	n/a	2.0	1.214	Sem/Sem_run-01/stereo_2SU87A0.wav	2.0	1	0.964
12.325999999999999	3.933	S_H	1.0	n/a	n/a	1.0	0.727	Sem/Sem_run-01/stereo_1SH13A0.wav	1.0	1	0.477
16.262999999999998	4.323	S_H	1.0	n/a	n/a	1.0	0.8540000000000001	Sem/Sem_run-01/stereo_1SH05A0.wav	1.0	1	0.6040000000000001
20.599	4.073	S_C	1.0	1.0	0.562	n/a	n/a	Sem/Sem_run-01/ContS31.wav	1.0	1	0.562
24.686	3.869	S_L	1.0	n/a	n/a	1.0	1.7469999999999999	Sem/Sem_run-01/stereo_2SL63A0.wav	1.0	1	1.497
28.555	3.75	S_L	1.0	n/a	n/a	1.0	0.631	Sem/Sem_run-01/stereo_1SL29A0.wav	1.0	1	0.381
32.308	4.3660000000000005	S_U	2.0	n/a	n/a	2.0	1.28	Sem/Sem_run-01/stereo_2SU78A0.wav	2.0	1	1.03
36.678000000000004	3.3	S_L	1.0	n/a	n/a	1.0	1.216	Sem/Sem_run-01/stereo_1SL17A0.wav	1.0	1	0.966
39.981	3.884	S_C	1.0	1.0	0.73	n/a	n/a	Sem/Sem_run-01/ContS05.wav	1.0	1	0.73
43.867	4.371	S_H	1.0	n/a	n/a	1.0	0.813	Sem/Sem_run-01/stereo_2SH58A0.wav	1.0	1	0.563
48.254	4.329	S_L	1.0	n/a	n/a	1.0	1.355	Sem/Sem_run-01/stereo_2SL72A0.wav	1.0	1	1.105
52.59	3.94	S_H	1.0	n/a	n/a	1.0	1.105	Sem/Sem_run-01/stereo_2SH57A0.wav	1.0	1	0.855
56.543	4.2	S_U	2.0	n/a	n/a	2.0	1.168	Sem/Sem_run-01/stereo_2SU83A0.wav	2.0	1	0.9179999999999999
60.747	3.474	S_C	1.0	1.0	0.612	n/a	n/a	Sem/Sem_run-01/ContS11.wav	1.0	1	0.612
64.233	4.271	S_L	1.0	n/a	n/a	1.0	1.0070000000000001	Sem/Sem_run-01/stereo_1SL26A0.wav	1.0	1	0.7569999999999999
68.51899999999999	3.91	S_L	1.0	n/a	n/a	1.0	1.615	Sem/Sem_run-01/stereo_1SL25A0.wav	1.0	1	1.365
72.439	4.479	S_C	1.0	1.0	0.65	n/a	n/a	Sem/Sem_run-01/ContS25.wav	1.0	1	0.65
76.926	3.378	S_U	2.0	n/a	n/a	2.0	1.097	Sem/Sem_run-01/stereo_2SU81A0.wav	2.0	1	0.847
80.311	3.42	S_L	1.0	n/a	n/a	1.0	1.5919999999999999	Sem/Sem_run-01/stereo_1SL27A0.wav	1.0	1	1.342
83.73100000000002	4.3439999999999985	S_L	1.0	n/a	n/a	1.0	1.054	Sem/Sem_run-01/stereo_1SL30A0.wav	1.0	1	0.804
88.084	3.909	S_L	1.0	n/a	n/a	1.0	1.102	Sem/Sem_run-01/stereo_2SL71A0.wav	1.0	1	0.8520000000000001
92.00399999999999	3.867	S_H	1.0	n/a	n/a	1.0	1.137	Sem/Sem_run-01/stereo_1SH04A0.wav	1.0	1	0.887
95.87299999999999	3.828	S_U	2.0	n/a	n/a	2.0	1.1909999999999998	Sem/Sem_run-01/stereo_1SU37A0.wav	2.0	1	0.9409999999999998
99.71	4.565	S_C	1.0	n/a	n/a	1.0	0.156	Sem/Sem_run-01/ContS35.wav	1.0	1	0.906
104.28	3.3	S_U	2.0	n/a	n/a	2.0	1.5730000000000002	Sem/Sem_run-01/stereo_1SU35A0.wav	2.0	1	1.3230000000000002
107.58200000000001	3.477	S_L	1.0	n/a	n/a	1.0	1.1840000000000002	Sem/Sem_run-01/stereo_2SL65A0.wav	1.0	1	0.9340000000000002
111.068	3.83	S_H	1.0	n/a	n/a	1.0	1.9609999999999999	Sem/Sem_run-01/stereo_1SH07A0.wav	1.0	1	1.711
114.904	4.3439999999999985	S_C	1.0	1.0	0.67	n/a	n/a	Sem/Sem_run-01/ContS07.wav	1.0	1	0.67
119.258	3.5	S_H	1.0	n/a	n/a	1.0	1.784	Sem/Sem_run-01/stereo_1SH03A0.wav	1.0	1	1.534
122.76	3.919	S_U	2.0	n/a	n/a	1.0	0.738	Sem/Sem_run-01/stereo_1SU45A0.wav	1.0	0	0.488
126.68	3.5	S_H	1.0	n/a	n/a	1.0	1.018	Sem/Sem_run-01/stereo_1SH06A0.wav	1.0	1	0.768
130.183	3.392	S_L	1.0	n/a	n/a	1.0	0.818	Sem/Sem_run-01/stereo_2SL62A0.wav	1.0	1	0.568
133.585	3.54	S_C	1.0	n/a	n/a	1.0	0.049	Sem/Sem_run-01/ContS19.wav	1.0	1	0.799
137.138	4.4	S_H	1.0	n/a	n/a	1.0	0.8140000000000001	Sem/Sem_run-01/stereo_1SH15A0.wav	1.0	1	0.5640000000000001
141.541	3.342	S_H	1.0	n/a	n/a	1.0	1.141	Sem/Sem_run-01/stereo_1SH11A0.wav	1.0	1	0.8909999999999999
144.894	3.385	S_U	2.0	n/a	n/a	2.0	0.953	Sem/Sem_run-01/stereo_1SU44A0.wav	2.0	1	0.703
148.28	3.4160000000000004	S_H	1.0	n/a	n/a	1.0	1.107	Sem/Sem_run-01/stereo_2SH56A0.wav	1.0	1	0.857
151.69899999999996	3.849	S_U	2.0	n/a	n/a	2.0	2.017	Sem/Sem_run-01/stereo_2SU82A0.wav	2.0	1	1.767
155.55200000000005	3.934	S_C	1.0	1.0	0.6709999999999999	1.0	0.534	Sem/Sem_run-01/ContS13.wav	1.0	1	0.6709999999999999
159.488	4.309	S_L	1.0	n/a	n/a	1.0	0.9790000000000001	Sem/Sem_run-01/stereo_2SL64A0.wav	1.0	1	0.7290000000000001
163.808	4.413	S_C	1.0	1.0	0.621	n/a	n/a	Sem/Sem_run-01/ContS17.wav	1.0	1	0.621
168.22799999999995	4.2	S_U	2.0	n/a	n/a	2.0	0.9179999999999999	Sem/Sem_run-01/stereo_2SU90A0.wav	2.0	1	0.6679999999999999
172.43200000000004	3.846	S_U	2.0	n/a	n/a	2.0	2.498	Sem/Sem_run-01/stereo_2SU88A0.wav	2.0	1	2.248
176.28400000000005	3.3939999999999997	S_C	1.0	n/a	n/a	1.0	0.47700000000000004	Sem/Sem_run-01/ContS01.wav	1.0	1	1.227
179.687	4.013	S_C	1.0	n/a	n/a	1.0	0.365	Sem/Sem_run-01/ContS23.wav	1.0	1	1.115
183.707	4.227	S_H	1.0	n/a	n/a	1.0	1.261	Sem/Sem_run-01/stereo_1SH08A0.wav	1.0	1	1.011
