onset	duration	trial_type	correct	window1_response	window1_RT	window2_response	window2_RT	stim_file	calculated_response	calculated_accuracy	calculated_RT
1.084	4.2010000000000005	S_U	2.0	n/a	n/a	2.0	1.4409999999999998	Sem/Sem_run-02/stereo_1SU33A0.wav	2.0	1	1.1909999999999998
5.287000000000001	3.486	S_U	2.0	n/a	n/a	2.0	1.419	Sem/Sem_run-02/stereo_2SU85A0.wav	2.0	1	1.169
8.773	3.8539999999999996	S_H	1.0	n/a	n/a	1.0	1.122	Sem/Sem_run-02/stereo_2SH50A0.wav	1.0	1	0.8720000000000001
12.643	3.454	S_C	1.0	n/a	n/a	1.0	0.053	Sem/Sem_run-02/ContS08.wav	1.0	1	0.8029999999999999
16.112000000000002	4.33	S_H	1.0	n/a	n/a	1.0	0.898	Sem/Sem_run-02/stereo_1SH10A0.wav	1.0	1	0.648
20.449	3.872	S_L	1.0	n/a	n/a	2.0	1.6019999999999999	Sem/Sem_run-02/stereo_2SL61A0.wav	2.0	0	1.352
24.335	3.885	S_L	1.0	n/a	n/a	1.0	1.245	Sem/Sem_run-02/stereo_1SL23A0.wav	1.0	1	0.995
28.221	4.2	S_U	2.0	n/a	n/a	2.0	1.3619999999999999	Sem/Sem_run-02/stereo_1SU42A0.wav	2.0	1	1.112
32.425	3.321	S_L	1.0	n/a	n/a	1.0	1.0759999999999998	Sem/Sem_run-02/stereo_1SL16A0.wav	1.0	1	0.8259999999999998
35.76	3.59	S_C	1.0	n/a	n/a	1.0	0.485	Sem/Sem_run-02/ContS26.wav	1.0	1	1.235
39.363	4.4	S_H	1.0	n/a	n/a	1.0	1.432	Sem/Sem_run-02/stereo_2SH60A0.wav	1.0	1	1.182
43.767	4.311	S_L	1.0	n/a	n/a	1.0	1.489	Sem/Sem_run-02/stereo_2SL75A0.wav	1.0	1	1.239
48.087	3.912	S_H	1.0	n/a	n/a	1.0	1.7009999999999998	Sem/Sem_run-02/stereo_2SH59A0.wav	1.0	1	1.4509999999999998
52.006	4.4	S_U	2.0	n/a	n/a	2.0	1.6130000000000002	Sem/Sem_run-02/stereo_2SU84A0.wav	2.0	1	1.3630000000000002
56.41	3.4210000000000003	S_U	2.0	n/a	n/a	2.0	2.206	Sem/Sem_run-02/stereo_1SU43A0.wav	2.0	1	1.956
59.846	3.8539999999999996	S_C	1.0	n/a	n/a	1.0	2.299	Sem/Sem_run-02/ContS02.wav	1.0	1	3.049
63.715	4.37	S_L	1.0	n/a	n/a	1.0	1.454	Sem/Sem_run-02/stereo_1SL19A0.wav	1.0	1	1.204
68.085	3.862	S_L	1.0	n/a	n/a	1.0	1.213	Sem/Sem_run-02/stereo_1SL18A0.wav	1.0	1	0.963
71.955	4.462	S_C	1.0	n/a	n/a	1.0	0.935	Sem/Sem_run-02/ContS22.wav	1.0	1	1.685
76.425	3.406	S_L	1.0	n/a	n/a	1.0	1.5319999999999998	Sem/Sem_run-02/stereo_1SL21A0.wav	1.0	1	1.2819999999999998
79.844	3.355	S_U	2.0	n/a	n/a	2.0	1.182	Sem/Sem_run-02/stereo_1SU36A0.wav	2.0	1	0.932
83.213	4.324	S_C	1.0	n/a	n/a	1.0	0.341	Sem/Sem_run-02/ContS04.wav	1.0	1	1.091
87.55	4.253	S_L	1.0	n/a	n/a	1.0	2.115	Sem/Sem_run-02/stereo_1SL24A0.wav	1.0	1	1.865
91.803	3.839	S_L	1.0	n/a	n/a	1.0	2.135	Sem/Sem_run-02/stereo_2SL70A0.wav	1.0	1	1.885
95.656	4.395	S_C	1.0	n/a	n/a	1.0	1.044	Sem/Sem_run-02/ContS14.wav	1.0	1	1.794
100.06	3.8739999999999997	S_H	1.0	n/a	n/a	1.0	1.224	Sem/Sem_run-02/stereo_1SH09A0.wav	1.0	1	0.974
103.946	3.75	S_U	2.0	n/a	n/a	2.0	1.175	Sem/Sem_run-02/stereo_1SU32A0.wav	2.0	1	0.925
107.699	3.641	S_C	1.0	n/a	n/a	1.0	0.078	Sem/Sem_run-02/ContS34.wav	1.0	1	0.828
111.352	3.338	S_U	2.0	n/a	n/a	2.0	1.4880000000000002	Sem/Sem_run-02/stereo_1SU31A0.wav	2.0	1	1.2380000000000002
114.704	3.45	S_L	1.0	n/a	n/a	1.0	1.459	Sem/Sem_run-02/stereo_2SL68A0.wav	1.0	1	1.209
118.157	3.8510000000000004	S_H	1.0	n/a	n/a	1.0	0.8859999999999999	Sem/Sem_run-02/stereo_1SH14A0.wav	1.0	1	0.6359999999999999
122.01	3.459	S_H	1.0	n/a	n/a	1.0	1.071	Sem/Sem_run-02/stereo_1SH01A0.wav	1.0	1	0.821
125.479	3.512	S_C	1.0	n/a	n/a	1.0	0.037000000000000005	Sem/Sem_run-02/ContS16.wav	1.0	1	0.787
128.998	3.489	S_H	1.0	n/a	n/a	1.0	0.94	Sem/Sem_run-02/stereo_1SH12A0.wav	1.0	1	0.69
132.501	3.8489999999999998	S_U	2.0	n/a	n/a	2.0	1.527	Sem/Sem_run-02/stereo_2SU86A0.wav	2.0	1	1.277
136.35399999999998	3.46	S_L	1.0	n/a	n/a	1.0	1.295	Sem/Sem_run-02/stereo_1SL28A0.wav	1.0	1	1.045
139.82299999999998	4.53	S_C	1.0	n/a	n/a	1.0	0.3	Sem/Sem_run-02/ContS32.wav	1.0	1	1.05
144.36	4.351	S_H	1.0	n/a	n/a	1.0	1.482	Sem/Sem_run-02/stereo_2SH52A0.wav	1.0	1	1.232
148.713	3.48	S_H	1.0	n/a	n/a	1.0	1.452	Sem/Sem_run-02/stereo_2SH47A0.wav	1.0	1	1.202
152.19899999999996	3.3	S_H	1.0	n/a	n/a	1.0	1.489	Sem/Sem_run-02/stereo_2SH53A0.wav	1.0	1	1.239
155.502	3.847	S_U	2.0	n/a	n/a	2.0	1.4669999999999999	Sem/Sem_run-02/stereo_1SU39A0.wav	2.0	1	1.217
159.355	3.923	S_C	1.0	n/a	n/a	1.0	0.07	Sem/Sem_run-02/ContS10.wav	1.0	1	0.8200000000000001
163.291	3.7510000000000003	S_U	2.0	n/a	n/a	2.0	1.296	Sem/Sem_run-02/stereo_2SU80A0.wav	2.0	1	1.046
167.044	4.2	S_L	1.0	n/a	n/a	1.0	1.043	Sem/Sem_run-02/stereo_2SL66A0.wav	1.0	1	0.7929999999999999
171.247	3.99	S_C	1.0	1.0	0.6940000000000001	n/a	n/a	Sem/Sem_run-02/ContS20.wav	1.0	1	0.6940000000000001
175.25	4.041	S_C	1.0	n/a	n/a	1.0	0.09300000000000001	Sem/Sem_run-02/ContS28.wav	1.0	1	0.843
179.303	4.2	S_U	2.0	n/a	n/a	2.0	1.173	Sem/Sem_run-02/stereo_2SU89A0.wav	2.0	1	0.923
183.507	4.368	S_H	1.0	n/a	n/a	1.0	0.89	Sem/Sem_run-02/stereo_2SH46A0.wav	1.0	1	0.64
