onset	duration	trial_type	correct	window1_response	window1_RT	window2_response	window2_RT	stim_file	calculated_response	calculated_accuracy	calculated_RT
1.518	3.4539999999999997	P_R	1.0	n/a	n/a	1.0	1.95	Phon/Phon_run-01/stereo_PR01.wav	1.0	1	1.7
4.9830000000000005	3.767	P_O	1.0	n/a	n/a	1.0	1.8030000000000002	Phon/Phon_run-01/PC018.wav	1.0	1	1.553
8.75	3.391	P_O	1.0	n/a	n/a	2.0	1.8330000000000002	Phon/Phon_run-01/PC009.wav	2.0	0	1.583
12.149000000000001	4.374	P_C	1.0	n/a	n/a	1.0	0.051	Phon/Phon_run-01/ContS11.wav	1.0	1	0.801
16.533	3.345	P_U	2.0	n/a	n/a	2.0	1.551	Phon/Phon_run-01/PM002.wav	2.0	1	1.301
19.883	4.4510000000000005	P_C	1.0	1.0	0.583	1.0	0.52	Phon/Phon_run-01/ContS21.wav	1.0	1	0.583
24.349	4.382	P_O	1.0	n/a	n/a	1.0	1.673	Phon/Phon_run-01/PC005.wav	1.0	1	1.423
28.732	3.3	P_U	2.0	n/a	n/a	1.0	1.6280000000000001	Phon/Phon_run-01/stereo_PU26.wav	1.0	0	1.378
32.032	4.324	P_C	1.0	2.0	0.008	1.0	0.23399999999999999	Phon/Phon_run-01/ContS03.wav	2.0	0	0.008
36.365	4.378	P_R	1.0	n/a	n/a	2.0	1.82	Phon/Phon_run-01/stereo_PR29.wav	2.0	0	1.57
40.749	3.4810000000000003	P_U	2.0	n/a	n/a	n/a	n/a	Phon/Phon_run-01/PM020.wav	n/a	0	n/a
44.232	4.393	P_O	1.0	n/a	n/a	1.0	1.768	Phon/Phon_run-01/PC027.wav	1.0	1	1.518
48.632	4.4	P_R	1.0	n/a	n/a	1.0	1.421	Phon/Phon_run-01/stereo_PR11.wav	1.0	1	1.171
53.032	3.884	P_C	1.0	n/a	n/a	1.0	0.021	Phon/Phon_run-01/ContS05.wav	1.0	1	0.771
56.931000000000004	3.891	P_U	2.0	n/a	n/a	2.0	1.565	Phon/Phon_run-01/stereo_PU28.wav	2.0	1	1.315
60.832	4.4	P_O	1.0	n/a	n/a	1.0	1.459	Phon/Phon_run-01/PC013.wav	1.0	1	1.209
65.248	3.513	P_C	1.0	1.0	0.552	1.0	0.32799999999999996	Phon/Phon_run-01/ContS17.wav	1.0	1	0.552
68.765	4.4	P_U	2.0	n/a	n/a	1.0	1.909	Phon/Phon_run-01/PM027.wav	1.0	0	1.659
73.181	4.4	P_O	1.0	n/a	n/a	2.0	1.188	Phon/Phon_run-01/PC021.wav	2.0	0	0.938
77.581	4.496	P_C	1.0	n/a	n/a	1.0	0.034	Phon/Phon_run-01/ContS29.wav	1.0	1	0.784
82.081	3.3680000000000003	P_R	1.0	n/a	n/a	2.0	1.508	Phon/Phon_run-01/stereo_PR25.wav	2.0	0	1.258
85.464	3.95	P_O	1.0	n/a	n/a	1.0	1.011	Phon/Phon_run-01/PC012.wav	1.0	1	0.7609999999999999
89.414	3.95	P_U	2.0	n/a	n/a	1.0	2.314	Phon/Phon_run-01/PM003.wav	1.0	0	2.064
93.36399999999999	3.939	P_O	1.0	n/a	n/a	1.0	1.22	Phon/Phon_run-01/PC004.wav	1.0	1	0.97
97.314	3.59	P_C	1.0	1.0	0.627	1.0	0.5720000000000001	Phon/Phon_run-01/ContS27.wav	1.0	1	0.627
100.914	4.296	P_U	2.0	n/a	n/a	n/a	n/a	Phon/Phon_run-01/stereo_PU21.wav	2.0	1	3.394
105.213	3.862	P_R	1.0	2.0	0.098	1.0	1.63	Phon/Phon_run-01/stereo_PR26.wav	1.0	1	1.38
109.08	3.95	P_O	1.0	n/a	n/a	1.0	2.092	Phon/Phon_run-01/PC026.wav	1.0	1	1.842
113.03	3.5	P_O	1.0	n/a	n/a	2.0	1.909	Phon/Phon_run-01/PC025.wav	2.0	0	1.659
116.53	4.013	P_C	1.0	n/a	n/a	1.0	0.27899999999999997	Phon/Phon_run-01/ContS23.wav	1.0	1	1.029
120.54700000000001	3.792	P_R	1.0	n/a	n/a	1.0	1.882	Phon/Phon_run-01/stereo_PR18.wav	1.0	1	1.632
124.43	3.346	P_U	2.0	n/a	n/a	2.0	1.926	Phon/Phon_run-01/stereo_PU19.wav	2.0	1	1.676
127.83	3.891	P_R	1.0	n/a	n/a	1.0	1.19	Phon/Phon_run-01/stereo_PR03.wav	1.0	1	0.94
131.72899999999998	3.355	P_O	1.0	n/a	n/a	1.0	1.537	Phon/Phon_run-01/PC003.wav	1.0	1	1.287
135.096	3.951	P_C	1.0	n/a	n/a	1.0	0.621	Phon/Phon_run-01/ContS15.wav	1.0	1	1.371
139.063	3.74	P_U	2.0	n/a	n/a	1.0	1.4969999999999999	Phon/Phon_run-01/stereo_PU16.wav	1.0	0	1.247
142.812	3.95	P_R	1.0	n/a	n/a	1.0	1.38	Phon/Phon_run-01/stereo_PR10.wav	1.0	1	1.13
146.762	3.464	P_C	1.0	1.0	0.685	1.0	0.617	Phon/Phon_run-01/ContS09.wav	1.0	1	0.685
150.22899999999996	4.275	P_R	1.0	n/a	n/a	1.0	2.582	Phon/Phon_run-01/stereo_PR04.wav	1.0	1	2.332
154.512	3.95	P_U	2.0	n/a	n/a	1.0	1.518	Phon/Phon_run-01/PM023.wav	1.0	0	1.268
158.46200000000005	4.4	P_U	2.0	2.0	0.147	1.0	2.0780000000000003	Phon/Phon_run-01/PM001.wav	1.0	0	1.8280000000000003
162.862	3.665	P_C	1.0	1.0	0.6890000000000001	1.0	0.615	Phon/Phon_run-01/ContS35.wav	1.0	1	0.6890000000000001
166.528	3.463	P_O	1.0	n/a	n/a	1.0	1.6840000000000002	Phon/Phon_run-01/PC017.wav	1.0	1	1.4340000000000002
169.995	4.332	P_R	1.0	n/a	n/a	1.0	1.416	Phon/Phon_run-01/stereo_PR19.wav	1.0	1	1.166
174.328	4.083	P_C	1.0	n/a	n/a	1.0	0.003	Phon/Phon_run-01/ContS33.wav	1.0	1	0.753
178.41099999999997	3.5	P_R	1.0	n/a	n/a	1.0	1.9169999999999998	Phon/Phon_run-01/stereo_PR17.wav	1.0	1	1.667
181.91099999999997	4.2669999999999995	P_U	2.0	n/a	n/a	2.0	2.87	Phon/Phon_run-01/PM009.wav	2.0	1	2.62
186.178	3.4389999999999996	P_R	1.0	n/a	n/a	1.0	1.7619999999999998	Phon/Phon_run-01/stereo_PR09.wav	1.0	1	1.5119999999999998
