onset	duration	trial_type	correct	window1_response	window1_RT	window2_response	window2_RT	stim_file	calculated_response	calculated_accuracy	calculated_RT
1.084	4.2	S_U	2.0	n/a	n/a	1.0	1.751	Sem/Sem_run-01/stereo_1SU41A0.wav	1.0	0	1.501
5.2879999999999985	3.596	S_C	1.0	n/a	n/a	1.0	0.040999999999999995	Sem/Sem_run-01/ContS29.wav	1.0	1	0.7909999999999999
8.89	3.425	S_U	2.0	n/a	n/a	2.0	1.454	Sem/Sem_run-01/stereo_2SU87A0.wav	2.0	1	1.204
12.325999999999999	3.933	S_H	1.0	n/a	n/a	1.0	1.138	Sem/Sem_run-01/stereo_1SH13A0.wav	1.0	1	0.8879999999999999
16.262999999999998	4.323	S_H	1.0	n/a	n/a	1.0	1.3459999999999999	Sem/Sem_run-01/stereo_1SH05A0.wav	1.0	1	1.0959999999999999
20.599	4.073	S_C	1.0	1.0	0.711	1.0	0.741	Sem/Sem_run-01/ContS31.wav	1.0	1	0.711
24.686	3.869	S_L	1.0	n/a	n/a	1.0	1.3969999999999998	Sem/Sem_run-01/stereo_2SL63A0.wav	1.0	1	1.1469999999999998
28.555	3.75	S_L	1.0	n/a	n/a	1.0	2.247	Sem/Sem_run-01/stereo_1SL29A0.wav	1.0	1	1.9969999999999999
32.308	4.3660000000000005	S_U	2.0	n/a	n/a	1.0	1.6230000000000002	Sem/Sem_run-01/stereo_2SU78A0.wav	1.0	0	1.3730000000000002
36.678000000000004	3.3	S_L	1.0	n/a	n/a	1.0	1.074	Sem/Sem_run-01/stereo_1SL17A0.wav	1.0	1	0.8240000000000001
39.981	3.884	S_C	1.0	n/a	n/a	1.0	0.039	Sem/Sem_run-01/ContS05.wav	1.0	1	0.789
43.867	4.371	S_H	1.0	n/a	n/a	1.0	1.3940000000000001	Sem/Sem_run-01/stereo_2SH58A0.wav	1.0	1	1.1440000000000001
48.254	4.329	S_L	1.0	n/a	n/a	1.0	1.653	Sem/Sem_run-01/stereo_2SL72A0.wav	1.0	1	1.403
52.59	3.94	S_H	1.0	n/a	n/a	1.0	1.589	Sem/Sem_run-01/stereo_2SH57A0.wav	1.0	1	1.339
56.543	4.2	S_U	2.0	n/a	n/a	1.0	1.36	Sem/Sem_run-01/stereo_2SU83A0.wav	1.0	0	1.11
60.746	3.474	S_C	1.0	n/a	n/a	1.0	0.24100000000000002	Sem/Sem_run-01/ContS11.wav	1.0	1	0.991
64.232	4.271	S_L	1.0	n/a	n/a	1.0	1.672	Sem/Sem_run-01/stereo_1SL26A0.wav	1.0	1	1.422
68.51899999999999	3.91	S_L	1.0	n/a	n/a	1.0	1.525	Sem/Sem_run-01/stereo_1SL25A0.wav	1.0	1	1.275
72.439	4.479	S_C	1.0	1.0	0.586	1.0	0.465	Sem/Sem_run-01/ContS25.wav	1.0	1	0.586
76.925	3.378	S_U	2.0	n/a	n/a	2.0	1.538	Sem/Sem_run-01/stereo_2SU81A0.wav	2.0	1	1.288
80.311	3.42	S_L	1.0	n/a	n/a	1.0	1.339	Sem/Sem_run-01/stereo_1SL27A0.wav	1.0	1	1.089
83.73100000000002	4.3439999999999985	S_L	1.0	n/a	n/a	1.0	1.32	Sem/Sem_run-01/stereo_1SL30A0.wav	1.0	1	1.07
88.084	3.909	S_L	1.0	n/a	n/a	1.0	1.4669999999999999	Sem/Sem_run-01/stereo_2SL71A0.wav	1.0	1	1.217
92.00399999999999	3.867	S_H	1.0	n/a	n/a	1.0	1.419	Sem/Sem_run-01/stereo_1SH04A0.wav	1.0	1	1.169
95.87299999999999	3.828	S_U	2.0	n/a	n/a	2.0	1.521	Sem/Sem_run-01/stereo_1SU37A0.wav	2.0	1	1.271
99.709	4.565	S_C	1.0	n/a	n/a	1.0	0.317	Sem/Sem_run-01/ContS35.wav	1.0	1	1.067
104.28	3.3	S_U	2.0	n/a	n/a	1.0	1.538	Sem/Sem_run-01/stereo_1SU35A0.wav	1.0	0	1.288
107.58200000000001	3.477	S_L	1.0	2.0	0.342	1.0	1.194	Sem/Sem_run-01/stereo_2SL65A0.wav	1.0	1	0.944
111.068	3.83	S_H	1.0	n/a	n/a	1.0	1.181	Sem/Sem_run-01/stereo_1SH07A0.wav	1.0	1	0.931
114.904	4.3439999999999985	S_C	1.0	1.0	0.6779999999999999	1.0	0.444	Sem/Sem_run-01/ContS07.wav	1.0	1	0.6779999999999999
119.258	3.5	S_H	1.0	n/a	n/a	1.0	1.704	Sem/Sem_run-01/stereo_1SH03A0.wav	1.0	1	1.454
122.76	3.919	S_U	2.0	n/a	n/a	2.0	1.308	Sem/Sem_run-01/stereo_1SU45A0.wav	2.0	1	1.058
126.68	3.5	S_H	1.0	n/a	n/a	1.0	1.2690000000000001	Sem/Sem_run-01/stereo_1SH06A0.wav	1.0	1	1.0190000000000001
130.183	3.392	S_L	1.0	n/a	n/a	1.0	1.3	Sem/Sem_run-01/stereo_2SL62A0.wav	1.0	1	1.05
133.585	3.54	S_C	1.0	n/a	n/a	1.0	0.27399999999999997	Sem/Sem_run-01/ContS19.wav	1.0	1	1.024
137.138	4.4	S_H	1.0	n/a	n/a	1.0	1.258	Sem/Sem_run-01/stereo_1SH15A0.wav	1.0	1	1.008
141.541	3.342	S_H	1.0	n/a	n/a	1.0	1.225	Sem/Sem_run-01/stereo_1SH11A0.wav	1.0	1	0.975
144.894	3.385	S_U	2.0	n/a	n/a	1.0	1.305	Sem/Sem_run-01/stereo_1SU44A0.wav	1.0	0	1.055
148.28	3.4160000000000004	S_H	1.0	n/a	n/a	1.0	1.446	Sem/Sem_run-01/stereo_2SH56A0.wav	1.0	1	1.196
151.69899999999996	3.849	S_U	2.0	n/a	n/a	2.0	1.004	Sem/Sem_run-01/stereo_2SU82A0.wav	2.0	1	0.754
155.55200000000005	3.934	S_C	1.0	1.0	0.647	1.0	0.385	Sem/Sem_run-01/ContS13.wav	1.0	1	0.647
159.488	4.309	S_L	1.0	n/a	n/a	1.0	1.338	Sem/Sem_run-01/stereo_2SL64A0.wav	1.0	1	1.088
163.808	4.413	S_C	1.0	n/a	n/a	1.0	0.231	Sem/Sem_run-01/ContS17.wav	1.0	1	0.981
168.22799999999995	4.2	S_U	2.0	n/a	n/a	1.0	1.5430000000000001	Sem/Sem_run-01/stereo_2SU90A0.wav	1.0	0	1.2930000000000001
172.43099999999995	3.846	S_U	2.0	n/a	n/a	2.0	1.6740000000000002	Sem/Sem_run-01/stereo_2SU88A0.wav	2.0	1	1.4240000000000002
176.28400000000005	3.3939999999999997	S_C	1.0	n/a	n/a	1.0	0.013999999999999999	Sem/Sem_run-01/ContS01.wav	1.0	1	0.764
179.687	4.013	S_C	1.0	1.0	0.527	1.0	0.479	Sem/Sem_run-01/ContS23.wav	1.0	1	0.527
183.707	4.227	S_H	1.0	n/a	n/a	1.0	1.0959999999999999	Sem/Sem_run-01/stereo_1SH08A0.wav	1.0	1	0.8459999999999999
