onset	duration	trial_type	correct	window1_response	window1_RT	window2_response	window2_RT	stim_file	calculated_response	calculated_accuracy	calculated_RT
1.6019999999999999	6.895	G_F	2.0	n/a	n/a	2.0	3.091	Gram/Gram_run-01/stereo_2MF57U2.wav	2.0	1	3.841
8.5	7.175	G_F	2.0	n/a	n/a	2.0	2.426	Gram/Gram_run-01/stereo_1MF15U3.wav	2.0	1	3.176
15.683	6.5070000000000014	G_G	1.0	n/a	n/a	1.0	3.194	Gram/Gram_run-01/stereo_1MF11G2.wav	1.0	1	2.014
22.2	6.505	G_C	1.0	1.0	0.718	1.0	1.4869999999999999	Gram/Gram_run-01/CoM09d.wav	1.0	1	0.718
28.715999999999998	6.9479999999999995	G_F	2.0	n/a	n/a	1.0	3.9819999999999998	Gram/Gram_run-01/stereo_2MF68U4.wav	1.0	0	3.2560000000000002
35.683	5.541	G_P	2.0	n/a	n/a	2.0	3.3539999999999996	Gram/Gram_run-01/stereo_1MP37U3.wav	2.0	1	2.319
41.248999999999995	5.9479999999999995	G_G	1.0	n/a	n/a	n/a	n/a	Gram/Gram_run-01/stereo_2MF50G1.wav	n/a	0	n/a
47.199	6.013	G_F	2.0	n/a	n/a	2.0	3.907	Gram/Gram_run-01/stereo_1MF05U1.wav	2.0	1	3.305
53.215	7.87	G_C	1.0	n/a	n/a	1.0	0.094	Gram/Gram_run-01/CoM01l.wav	1.0	1	0.844
61.098	6.4979999999999976	G_G	1.0	n/a	n/a	1.0	4.815	Gram/Gram_run-01/stereo_1MF23G4.wav	1.0	1	2.6340000000000003
67.598	6.184	G_F	2.0	n/a	n/a	2.0	2.605	Gram/Gram_run-01/stereo_2MF55U2.wav	2.0	1	3.355
73.798	6.83	G_C	1.0	n/a	n/a	1.0	0.521	Gram/Gram_run-01/CoM10l.wav	1.0	1	1.271
80.631	7.505	G_G	1.0	n/a	n/a	1.0	4.668	Gram/Gram_run-01/stereo_2MP96G4.wav	1.0	1	2.2730000000000006
88.148	7.1370000000000005	G_G	1.0	n/a	n/a	1.0	4.413	Gram/Gram_run-01/stereo_1MP47G4.wav	1.0	1	1.9460000000000006
95.29799999999999	6.694	G_F	2.0	n/a	n/a	2.0	2.96	Gram/Gram_run-01/stereo_2MF61U3.wav	2.0	1	3.71
101.99700000000001	5.39	G_C	1.0	n/a	n/a	1.0	2.556	Gram/Gram_run-01/CoM01d.wav	1.0	1	3.306
107.397	6.5760000000000005	G_G	1.0	n/a	n/a	1.0	3.4130000000000003	Gram/Gram_run-01/stereo_1MP35G2.wav	1.0	1	2.4090000000000003
113.98	5.3389999999999995	G_F	2.0	n/a	n/a	1.0	3.617	Gram/Gram_run-01/stereo_2MF69U4.wav	1.0	0	2.8790000000000004
119.33	7.94	G_C	1.0	n/a	n/a	1.0	0.447	Gram/Gram_run-01/CoM08l.wav	1.0	1	1.197
127.34700000000001	6.006	G_P	2.0	n/a	n/a	2.0	3.844	Gram/Gram_run-01/stereo_1MP26U1.wav	2.0	1	1.8679999999999999
133.363	8.422	G_F	2.0	n/a	n/a	1.0	3.863	Gram/Gram_run-01/stereo_1MF06U1.wav	1.0	0	3.268
141.796	7.885	G_P	2.0	n/a	n/a	2.0	3.6710000000000003	Gram/Gram_run-01/stereo_2MP81U2.wav	2.0	1	2.7859999999999996
149.696	6.127000000000002	G_G	1.0	n/a	n/a	1.0	3.2039999999999997	Gram/Gram_run-01/stereo_2MP83G2.wav	1.0	1	2.144
155.829	5.765	G_C	1.0	n/a	n/a	1.0	0.462	Gram/Gram_run-01/CoM02b.wav	1.0	1	1.212
161.596	6.706	G_P	2.0	n/a	n/a	2.0	4.609	Gram/Gram_run-01/stereo_2MP93U4.wav	2.0	1	2.2090000000000005
168.312	6.61	G_P	2.0	n/a	n/a	2.0	4.103	Gram/Gram_run-01/stereo_1MP28U1.wav	2.0	1	1.9880000000000004
174.929	6.63	G_C	1.0	n/a	n/a	1.0	0.546	Gram/Gram_run-01/CoM04b.wav	1.0	1	1.296
181.562	5.665	G_P	2.0	n/a	n/a	n/a	n/a	Gram/Gram_run-01/stereo_1MP27U1.wav	n/a	0	n/a
187.22799999999998	7.55	G_G	1.0	n/a	n/a	1.0	4.215	Gram/Gram_run-01/stereo_2MP77G1.wav	1.0	1	2.1159999999999997
194.778	6.51	G_C	1.0	1.0	0.736	1.0	0.7190000000000001	Gram/Gram_run-01/CoM03e.wav	1.0	1	0.736
201.31099999999998	6.98	G_P	2.0	n/a	n/a	1.0	5.3229999999999995	Gram/Gram_run-01/stereo_2MP92U4.wav	1.0	0	2.974
208.294	7.047999999999999	G_G	1.0	n/a	n/a	1.0	2.8760000000000003	Gram/Gram_run-01/stereo_1MF12G2.wav	1.0	1	1.8420000000000003
215.34400000000002	5.574	G_F	2.0	n/a	n/a	2.0	4.398	Gram/Gram_run-01/stereo_1MF04U1.wav	2.0	1	3.8099999999999996
220.92700000000002	5.67	G_C	1.0	1.0	0.7140000000000001	1.0	0.884	Gram/Gram_run-01/CoM07d.wav	1.0	1	0.7140000000000001
226.61	6.6160000000000005	G_P	2.0	n/a	n/a	1.0	3.2539999999999996	Gram/Gram_run-01/stereo_1MP39U3.wav	1.0	0	2.25
233.24400000000003	5.695	G_P	2.0	n/a	n/a	2.0	3.032	Gram/Gram_run-01/stereo_2MP82U2.wav	2.0	1	2.111
238.96	6.627000000000002	G_F	2.0	n/a	n/a	1.0	3.572	Gram/Gram_run-01/stereo_1MF13U3.wav	1.0	0	4.322
245.593	7.145	G_C	1.0	n/a	n/a	1.0	0.099	Gram/Gram_run-01/CoM08e.wav	1.0	1	0.849
252.743	6.805	G_G	1.0	n/a	n/a	2.0	3.842	Gram/Gram_run-01/stereo_1MP41G3.wav	2.0	0	2.536
259.61	7.519	G_P	2.0	n/a	n/a	1.0	3.325	Gram/Gram_run-01/stereo_1MP38U3.wav	1.0	0	2.0860000000000003
