onset	duration	trial_type	correct	window1_response	window1_RT	window2_response	window2_RT	stim_file	calculated_response	calculated_accuracy	calculated_RT
1.0918	4.2	S_U	2.0	n/a	n/a	1.0	1.473	Sem/Sem_run-01/stereo_1SU41A0.wav	1.0	0	1.223
5.2953	3.596	S_C	1.0	1.0	0.612	1.0	0.456	Sem/Sem_run-01/ContS29.wav	1.0	1	0.612
8.898	3.425	S_U	2.0	n/a	n/a	2.0	1.696	Sem/Sem_run-01/stereo_2SU87A0.wav	2.0	1	1.446
12.3338	3.933	S_H	1.0	n/a	n/a	1.0	1.847	Sem/Sem_run-01/stereo_1SH13A0.wav	1.0	1	1.597
16.2699	4.323	S_H	1.0	n/a	n/a	2.0	1.4369999999999998	Sem/Sem_run-01/stereo_1SH05A0.wav	2.0	0	1.1869999999999998
20.6064	4.073	S_C	1.0	1.0	0.489	1.0	0.318	Sem/Sem_run-01/ContS31.wav	1.0	1	0.489
24.6927	3.869	S_L	1.0	n/a	n/a	1.0	1.795	Sem/Sem_run-01/stereo_2SL63A0.wav	1.0	1	1.545
28.5634	3.75	S_L	1.0	n/a	n/a	2.0	1.334	Sem/Sem_run-01/stereo_1SL29A0.wav	2.0	0	1.084
32.3161	4.3660000000000005	S_U	2.0	n/a	n/a	1.0	1.875	Sem/Sem_run-01/stereo_2SU78A0.wav	1.0	0	1.625
36.6859	3.3	S_L	1.0	n/a	n/a	2.0	1.3030000000000002	Sem/Sem_run-01/stereo_1SL17A0.wav	2.0	0	1.0530000000000002
39.9885	3.884	S_C	1.0	1.0	0.557	1.0	0.348	Sem/Sem_run-01/ContS05.wav	1.0	1	0.557
43.8755	4.371	S_H	1.0	n/a	n/a	1.0	1.6969999999999998	Sem/Sem_run-01/stereo_2SH58A0.wav	1.0	1	1.4469999999999998
48.2606	4.329	S_L	1.0	n/a	n/a	1.0	1.725	Sem/Sem_run-01/stereo_2SL72A0.wav	1.0	1	1.475
52.5971	3.94	S_H	1.0	n/a	n/a	1.0	1.35	Sem/Sem_run-01/stereo_2SH57A0.wav	1.0	1	1.1
56.55	4.2	S_U	2.0	n/a	n/a	2.0	1.88	Sem/Sem_run-01/stereo_2SU83A0.wav	2.0	1	1.63
60.753	3.474	S_C	1.0	n/a	n/a	1.0	0.018000000000000002	Sem/Sem_run-01/ContS11.wav	1.0	1	0.768
64.2389	4.271	S_L	1.0	n/a	n/a	1.0	1.285	Sem/Sem_run-01/stereo_1SL26A0.wav	1.0	1	1.035
68.5248	3.91	S_L	1.0	n/a	n/a	n/a	n/a	Sem/Sem_run-01/stereo_1SL25A0.wav	n/a	0	n/a
72.4443	4.479	S_C	1.0	1.0	0.6859999999999999	1.0	0.29100000000000004	Sem/Sem_run-01/ContS25.wav	1.0	1	0.6859999999999999
76.9309	3.378	S_U	2.0	n/a	n/a	2.0	1.5	Sem/Sem_run-01/stereo_2SU81A0.wav	2.0	1	1.25
80.3167	3.42	S_L	1.0	n/a	n/a	1.0	1.662	Sem/Sem_run-01/stereo_1SL27A0.wav	1.0	1	1.412
83.7479	4.3439999999999985	S_L	1.0	n/a	n/a	2.0	1.4880000000000002	Sem/Sem_run-01/stereo_1SL30A0.wav	2.0	0	1.2380000000000002
88.1008	3.909	S_L	1.0	n/a	n/a	1.0	1.8840000000000001	Sem/Sem_run-01/stereo_2SL71A0.wav	1.0	1	1.634
92.0205	3.867	S_H	1.0	n/a	n/a	1.0	1.9369999999999998	Sem/Sem_run-01/stereo_1SH04A0.wav	1.0	1	1.687
95.8902	3.828	S_U	2.0	n/a	n/a	2.0	1.41	Sem/Sem_run-01/stereo_1SU37A0.wav	2.0	1	1.16
99.7264	4.565	S_C	1.0	1.0	0.728	1.0	0.384	Sem/Sem_run-01/ContS35.wav	1.0	1	0.728
104.2964	3.3	S_U	2.0	n/a	n/a	1.0	1.3559999999999999	Sem/Sem_run-01/stereo_1SU35A0.wav	1.0	0	1.106
107.5986	3.477	S_L	1.0	n/a	n/a	2.0	0.93	Sem/Sem_run-01/stereo_2SL65A0.wav	2.0	0	0.68
111.0845	3.83	S_H	1.0	n/a	n/a	1.0	1.011	Sem/Sem_run-01/stereo_1SH07A0.wav	1.0	1	0.7609999999999999
114.9207	4.3439999999999985	S_C	1.0	n/a	n/a	1.0	0.127	Sem/Sem_run-01/ContS07.wav	1.0	1	0.877
119.2738	3.5	S_H	1.0	n/a	n/a	1.0	1.8430000000000002	Sem/Sem_run-01/stereo_1SH03A0.wav	1.0	1	1.593
122.7765	3.919	S_U	2.0	n/a	n/a	1.0	2.1630000000000003	Sem/Sem_run-01/stereo_1SU45A0.wav	1.0	0	1.9130000000000003
126.697	3.5	S_H	1.0	n/a	n/a	n/a	n/a	Sem/Sem_run-01/stereo_1SH06A0.wav	n/a	0	n/a
130.1996	3.392	S_L	1.0	n/a	n/a	1.0	1.157	Sem/Sem_run-01/stereo_2SL62A0.wav	1.0	1	0.907
133.6021	3.54	S_C	1.0	1.0	0.6829999999999999	1.0	0.5920000000000001	Sem/Sem_run-01/ContS19.wav	1.0	1	0.6829999999999999
137.1547	4.4	S_H	1.0	n/a	n/a	2.0	2.4819999999999998	Sem/Sem_run-01/stereo_1SH15A0.wav	2.0	0	2.232
141.5578	3.342	S_H	1.0	n/a	n/a	1.0	0.732	Sem/Sem_run-01/stereo_1SH11A0.wav	1.0	1	0.482
144.9103	3.385	S_U	2.0	n/a	n/a	2.0	1.2	Sem/Sem_run-01/stereo_1SU44A0.wav	2.0	1	0.95
148.2972	3.4160000000000004	S_H	1.0	n/a	n/a	1.0	0.8270000000000001	Sem/Sem_run-01/stereo_2SH56A0.wav	1.0	1	0.5770000000000001
151.7164	3.849	S_U	2.0	n/a	n/a	2.0	1.536	Sem/Sem_run-01/stereo_2SU82A0.wav	2.0	1	1.286
155.5691	3.934	S_C	1.0	1.0	0.622	1.0	0.299	Sem/Sem_run-01/ContS13.wav	1.0	1	0.622
159.506	4.309	S_L	1.0	n/a	n/a	1.0	1.581	Sem/Sem_run-01/stereo_2SL64A0.wav	1.0	1	1.331
163.8257	4.413	S_C	1.0	n/a	n/a	1.0	0.065	Sem/Sem_run-01/ContS17.wav	1.0	1	0.815
168.2456	4.2	S_U	2.0	n/a	n/a	2.0	1.395	Sem/Sem_run-01/stereo_2SU90A0.wav	2.0	1	1.145
172.4489	3.846	S_U	2.0	n/a	n/a	1.0	1.035	Sem/Sem_run-01/stereo_2SU88A0.wav	1.0	0	0.7849999999999999
176.3017	3.3939999999999997	S_C	1.0	1.0	0.5489999999999999	1.0	0.24100000000000002	Sem/Sem_run-01/ContS01.wav	1.0	1	0.5489999999999999
179.7041	4.013	S_C	1.0	n/a	n/a	1.0	0.142	Sem/Sem_run-01/ContS23.wav	1.0	1	0.892
183.7237	4.227	S_H	1.0	n/a	n/a	2.0	0.9259999999999999	Sem/Sem_run-01/stereo_1SH08A0.wav	2.0	0	0.676
