onset	duration	trial_type	correct	window1_response	window1_RT	window2_response	window2_RT	stim_file	calculated_response	calculated_accuracy	calculated_RT
1.084	7.632999999999999	G_P	2.0	n/a	n/a	2.0	3.838	Gram/Gram_run-02/stereo_1MP45U4.wav	2.0	1	1.7069999999999999
8.722999999999999	7.315	G_F	2.0	n/a	n/a	2.0	3.841	Gram/Gram_run-02/stereo_1MF20U4.wav	2.0	1	3.131
16.045	6.2829999999999995	G_P	2.0	n/a	n/a	2.0	3.049	Gram/Gram_run-02/stereo_1MP34U2.wav	2.0	1	1.9569999999999999
22.334	6.195	G_C	1.0	n/a	n/a	1.0	0.036000000000000004	Gram/Gram_run-02/CoM06d.wav	1.0	1	0.786
28.538	6.221	G_G	1.0	n/a	n/a	1.0	3.784	Gram/Gram_run-02/stereo_1MF02G1.wav	1.0	1	1.7439999999999998
34.76	5.801	G_F	2.0	n/a	n/a	2.0	2.9389999999999996	Gram/Gram_run-02/stereo_2MF64U3.wav	2.0	1	3.689
40.564	6.78	G_C	1.0	1.0	0.6579999999999999	n/a	n/a	Gram/Gram_run-02/CoM07l.wav	1.0	1	0.6579999999999999
47.353	6.084	G_F	2.0	n/a	n/a	2.0	3.679	Gram/Gram_run-02/stereo_2MF56U2.wav	2.0	1	4.429
53.441	7.5470000000000015	G_F	2.0	n/a	n/a	2.0	3.641	Gram/Gram_run-02/stereo_1MF21U4.wav	2.0	1	2.8899999999999997
60.997	6.482	G_G	1.0	n/a	n/a	1.0	3.781	Gram/Gram_run-02/stereo_1MF24G4.wav	1.0	1	1.4200000000000004
67.485	6.7810000000000015	G_P	2.0	n/a	n/a	2.0	4.2410000000000005	Gram/Gram_run-02/stereo_2MP76U1.wav	2.0	1	1.979000000000001
74.273	6.643	G_P	2.0	n/a	n/a	2.0	3.654	Gram/Gram_run-02/stereo_2MP80U2.wav	2.0	1	2.698
80.929	7.69	G_C	1.0	1.0	0.462	n/a	n/a	Gram/Gram_run-02/CoM06e.wav	1.0	1	0.462
88.634	6.352	G_F	2.0	n/a	n/a	2.0	2.399	Gram/Gram_run-02/stereo_2MF63U3.wav	2.0	1	3.149
94.98899999999999	5.801	G_G	1.0	n/a	n/a	1.0	3.062	Gram/Gram_run-02/stereo_1MF18G3.wav	1.0	1	1.6789999999999998
100.794	7.1129999999999995	G_P	2.0	n/a	n/a	2.0	3.967	Gram/Gram_run-02/stereo_1MP44U4.wav	2.0	1	1.6099999999999999
107.916	6.78	G_C	1.0	1.0	0.701	n/a	n/a	Gram/Gram_run-02/CoM05b.wav	1.0	1	0.701
114.704	6.7360000000000015	G_F	2.0	n/a	n/a	2.0	2.693	Gram/Gram_run-02/stereo_2MF58U2.wav	2.0	1	3.443
121.443	6.0889999999999995	G_P	2.0	n/a	n/a	2.0	3.266	Gram/Gram_run-02/stereo_2MP87U3.wav	2.0	1	2.0540000000000003
127.54799999999999	7.637	G_P	2.0	n/a	n/a	2.0	3.702	Gram/Gram_run-02/stereo_2MP73U1.wav	2.0	1	1.6749999999999998
135.187	7.305	G_C	1.0	n/a	n/a	1.0	0.076	Gram/Gram_run-02/CoM02l.wav	1.0	1	0.826
142.49200000000005	5.983	G_G	1.0	n/a	n/a	2.0	2.633	Gram/Gram_run-02/stereo_1MP42G3.wav	2.0	0	1.7109999999999999
148.48	5.36	G_P	2.0	n/a	n/a	2.0	2.792	Gram/Gram_run-02/stereo_1MP32U2.wav	2.0	1	1.7859999999999996
153.851	7.145	G_C	1.0	1.0	0.602	n/a	n/a	Gram/Gram_run-02/CoM09e.wav	1.0	1	0.602
161.007	6.28	G_F	2.0	n/a	n/a	2.0	3.542	Gram/Gram_run-02/stereo_1MF19U4.wav	2.0	1	2.856
167.295	6.63	G_C	1.0	1.0	0.6659999999999999	n/a	n/a	Gram/Gram_run-02/CoM07b.wav	1.0	1	0.6659999999999999
173.933	7.195	G_G	1.0	n/a	n/a	1.0	3.8710000000000004	Gram/Gram_run-02/stereo_2MP89G3.wav	1.0	1	2.533
181.139	5.1739999999999995	G_F	2.0	n/a	n/a	2.0	2.415	Gram/Gram_run-02/stereo_1MF07U2.wav	2.0	1	3.165
186.326	6.944	G_P	2.0	n/a	n/a	2.0	3.536	Gram/Gram_run-02/stereo_2MP88U3.wav	2.0	1	2.4930000000000003
193.28099999999998	6.0889999999999995	G_G	1.0	n/a	n/a	1.0	3.3539999999999996	Gram/Gram_run-02/stereo_2MF66G3.wav	1.0	1	1.9800000000000004
199.386	6.5	G_C	1.0	n/a	n/a	1.0	0.095	Gram/Gram_run-02/CoM01e.wav	1.0	1	0.845
205.891	6.43	G_P	2.0	n/a	n/a	2.0	4.081	Gram/Gram_run-02/stereo_1MP43U4.wav	2.0	1	1.7990000000000004
212.329	6.19	G_G	1.0	n/a	n/a	2.0	3.355	Gram/Gram_run-02/stereo_2MP84G2.wav	2.0	0	2.423
218.53400000000002	7.114	G_G	1.0	n/a	n/a	1.0	4.168	Gram/Gram_run-02/stereo_1MP29G1.wav	1.0	1	1.98
225.65599999999998	6.731	G_F	2.0	n/a	n/a	2.0	4.5969999999999995	Gram/Gram_run-02/stereo_2MF53U1.wav	2.0	1	4.026
232.395	6.015	G_C	1.0	n/a	n/a	1.0	0.081	Gram/Gram_run-02/CoM02d.wav	1.0	1	0.831
238.416	7.17	G_G	1.0	n/a	n/a	2.0	4.298	Gram/Gram_run-02/stereo_2MF71G4.wav	2.0	0	2.0489999999999995
245.588	5.33	G_C	1.0	n/a	n/a	1.0	0.131	Gram/Gram_run-02/CoM06b.wav	1.0	1	0.881
250.926	6.9689999999999985	G_F	2.0	n/a	n/a	1.0	3.9989999999999997	Gram/Gram_run-02/stereo_2MF54U1.wav	1.0	0	3.4290000000000003
257.89799999999997	7.6	G_G	1.0	n/a	n/a	2.0	3.6639999999999997	Gram/Gram_run-02/stereo_2MF49G1.wav	2.0	0	1.475
