onset	duration	trial_type	correct	window1_response	window1_RT	window2_response	window2_RT	stim_file	calculated_response	calculated_accuracy	calculated_RT
1.0937	6.343	SP_S	1.0	n/a	n/a	1.0	3.7119999999999997	Plaus/Plaus_run-02/stereo_PC37.wav	1.0	1	1.5509999999999995
7.4482	6.345	SP_W	1.0	n/a	n/a	2.0	4.523	Plaus/Plaus_run-02/stereo_PW74.wav	2.0	0	2.5540000000000003
13.8029	6.095	SP_C	1.0	n/a	n/a	1.0	0.281	Plaus/Plaus_run-02/CoM10d.wav	1.0	1	1.031
19.9073	6.401	SP_I	2.0	n/a	n/a	2.0	2.396	Plaus/Plaus_run-02/stereo_PI56.wav	2.0	1	1.5289999999999997
26.313000000000002	6.407	SP_W	1.0	n/a	n/a	1.0	4.16	Plaus/Plaus_run-02/stereo_PW39.wav	1.0	1	2.133
32.7344	6.8420000000000005	SP_I	2.0	n/a	n/a	2.0	4.192	Plaus/Plaus_run-02/stereo_PI44.wav	2.0	1	1.995
39.5893	7.7	SP_C	1.0	n/a	n/a	1.0	1.167	Plaus/Plaus_run-02/CoM07e.wav	1.0	1	1.9169999999999998
47.295	5.756	SP_S	1.0	n/a	n/a	2.0	3.0860000000000003	Plaus/Plaus_run-02/stereo_PC03.wav	2.0	0	2.144000000000001
53.0655	7.372000000000001	SP_S	1.0	n/a	n/a	1.0	3.3489999999999998	Plaus/Plaus_run-02/stereo_PC82.wav	1.0	1	1.294
60.4386	6.095	SP_C	1.0	n/a	n/a	1.0	0.40399999999999997	Plaus/Plaus_run-02/CoM04d.wav	1.0	1	1.1540000000000001
66.5431	6.303	SP_I	2.0	n/a	n/a	2.0	2.7319999999999998	Plaus/Plaus_run-02/stereo_PI23.wav	2.0	1	1.7480000000000002
72.8488	5.655	SP_I	2.0	n/a	n/a	2.0	3.097	Plaus/Plaus_run-02/stereo_PI22.wav	2.0	1	2.178
78.5141	6.85	SP_C	1.0	n/a	n/a	1.0	0.7829999999999999	Plaus/Plaus_run-02/CoM08d.wav	1.0	1	1.5330000000000001
85.3693	6.9179999999999975	SP_S	1.0	n/a	n/a	1.0	3.628	Plaus/Plaus_run-02/stereo_PC79.wav	1.0	1	1.3820000000000006
92.2921	5.233	SP_I	2.0	n/a	n/a	2.0	2.501	Plaus/Plaus_run-02/stereo_PI21.wav	2.0	1	1.4609999999999999
97.5292	6.385	SP_S	1.0	n/a	n/a	1.0	4.136	Plaus/Plaus_run-02/stereo_PC46.wav	1.0	1	3.1740000000000004
103.9184	6.282	SP_W	1.0	n/a	n/a	2.0	2.635	Plaus/Plaus_run-02/stereo_PW64.wav	2.0	0	1.5290000000000001
110.2063	7.69	SP_C	1.0	n/a	n/a	1.0	0.794	Plaus/Plaus_run-02/CoM04e.wav	1.0	1	1.544
117.9072	6.316	SP_I	2.0	n/a	n/a	2.0	3.775	Plaus/Plaus_run-02/stereo_PI34.wav	2.0	1	1.618
124.2283	5.47	SP_C	1.0	n/a	n/a	1.0	0.87	Plaus/Plaus_run-02/CoM10b.wav	1.0	1	1.62
129.7001	5.636	SP_I	2.0	n/a	n/a	2.0	2.679	Plaus/Plaus_run-02/stereo_PI55.wav	2.0	1	1.84
135.3387	7.461	SP_W	1.0	n/a	n/a	1.0	3.398	Plaus/Plaus_run-02/stereo_PW83.wav	1.0	1	1.3940000000000006
142.8107	5.48	SP_C	1.0	n/a	n/a	1.0	0.521	Plaus/Plaus_run-02/CoM01b.wav	1.0	1	1.271
148.298	6.2120000000000015	SP_W	1.0	n/a	n/a	1.0	2.5380000000000003	Plaus/Plaus_run-02/stereo_PW08.wav	1.0	1	1.6770000000000005
154.5192	4.694	SP_W	1.0	n/a	n/a	2.0	2.884	Plaus/Plaus_run-02/stereo_PW07.wav	2.0	0	2.009
159.2226	6.197	SP_I	2.0	n/a	n/a	2.0	3.556	Plaus/Plaus_run-02/stereo_PI43.wav	2.0	1	1.4960000000000004
165.4272	6.1979999999999995	SP_S	1.0	n/a	n/a	1.0	3.235	Plaus/Plaus_run-02/stereo_PC59.wav	1.0	1	2.234
171.6318	7.345	SP_C	1.0	n/a	n/a	1.0	0.633	Plaus/Plaus_run-02/CoM05l.wav	1.0	1	1.383
178.9871	5.2429999999999986	SP_S	1.0	n/a	n/a	1.0	2.7969999999999997	Plaus/Plaus_run-02/stereo_PC02.wav	1.0	1	1.918
184.2409	6.82	SP_C	1.0	n/a	n/a	1.0	1.158	Plaus/Plaus_run-02/CoM09l.wav	1.0	1	1.9080000000000001
191.0636	7.183	SP_I	2.0	n/a	n/a	2.0	3.156	Plaus/Plaus_run-02/stereo_PI78.wav	2.0	1	1.238
198.2522	6.727	SP_W	1.0	n/a	n/a	2.0	4.016	Plaus/Plaus_run-02/stereo_PW40.wav	2.0	0	1.7830000000000001
204.9904	5.181	SP_S	1.0	n/a	n/a	2.0	3.424	Plaus/Plaus_run-02/stereo_PC60.wav	2.0	0	2.134
210.1775	7.135	SP_W	1.0	n/a	n/a	1.0	4.644	Plaus/Plaus_run-02/stereo_PW73.wav	1.0	1	2.712
217.3172	6.76	SP_C	1.0	1.0	0.614	n/a	n/a	Plaus/Plaus_run-02/CoM04l.wav	1.0	1	0.614
224.0887	6.682	SP_I	2.0	n/a	n/a	2.0	3.418	Plaus/Plaus_run-02/stereo_PI75.wav	2.0	1	1.4220000000000002
230.7769	6.002999999999999	SP_W	1.0	n/a	n/a	1.0	2.695	Plaus/Plaus_run-02/stereo_PW63.wav	1.0	1	1.5479999999999998
236.7825	5.0760000000000005	SP_W	1.0	n/a	n/a	2.0	2.833	Plaus/Plaus_run-02/stereo_PW05.wav	2.0	0	2.055
241.8694	6.218	SP_S	1.0	n/a	n/a	1.0	3.5439999999999996	Plaus/Plaus_run-02/stereo_PC69.wav	1.0	1	1.3070000000000004
248.0918	6.569	SP_S	1.0	n/a	n/a	2.0	3.347	Plaus/Plaus_run-02/stereo_PC70.wav	2.0	0	1.4709999999999999
