onset	duration	trial_type	correct	window1_response	window1_RT	window2_response	window2_RT	stim_file	calculated_response	calculated_accuracy	calculated_RT
1.101	3.4539999999999997	P_R	1.0	n/a	n/a	n/a	n/a	Phon/Phon_run-01/stereo_PR01.wav	n/a	0	n/a
4.57	3.767	P_O	1.0	n/a	n/a	1.0	1.788	Phon/Phon_run-01/PC018.wav	1.0	1	1.538
8.339	3.391	P_O	1.0	n/a	n/a	1.0	2.0540000000000003	Phon/Phon_run-01/PC009.wav	1.0	1	1.8040000000000003
11.742	4.374	P_C	1.0	n/a	n/a	1.0	1.044	Phon/Phon_run-01/ContS11.wav	1.0	1	1.794
16.129	3.345	P_U	2.0	n/a	n/a	2.0	1.383	Phon/Phon_run-01/PM002.wav	2.0	1	1.133
19.480999999999998	4.4510000000000005	P_C	1.0	n/a	n/a	1.0	2.593	Phon/Phon_run-01/ContS21.wav	1.0	1	3.343
23.935	4.382	P_O	1.0	n/a	n/a	1.0	1.715	Phon/Phon_run-01/PC005.wav	1.0	1	1.465
28.320999999999998	3.3	P_U	2.0	n/a	n/a	2.0	1.314	Phon/Phon_run-01/stereo_PU26.wav	2.0	1	1.064
31.624000000000002	4.324	P_C	1.0	n/a	n/a	1.0	0.508	Phon/Phon_run-01/ContS03.wav	1.0	1	1.258
35.961	4.378	P_R	1.0	n/a	n/a	2.0	1.514	Phon/Phon_run-01/stereo_PR29.wav	2.0	0	1.264
40.347	3.4810000000000003	P_U	2.0	n/a	n/a	2.0	1.485	Phon/Phon_run-01/PM020.wav	2.0	1	1.235
43.833	4.393	P_O	1.0	n/a	n/a	1.0	1.705	Phon/Phon_run-01/PC027.wav	1.0	1	1.455
48.23699999999999	4.4	P_R	1.0	n/a	n/a	1.0	1.705	Phon/Phon_run-01/stereo_PR11.wav	1.0	1	1.455
52.64	3.884	P_C	1.0	n/a	n/a	1.0	0.6409999999999999	Phon/Phon_run-01/ContS05.wav	1.0	1	1.391
56.526	3.891	P_U	2.0	n/a	n/a	1.0	1.899	Phon/Phon_run-01/stereo_PU28.wav	1.0	0	1.649
60.42899999999999	4.4	P_O	1.0	n/a	n/a	1.0	1.493	Phon/Phon_run-01/PC013.wav	1.0	1	1.243
64.833	3.513	P_C	1.0	n/a	n/a	1.0	0.40299999999999997	Phon/Phon_run-01/ContS17.wav	1.0	1	1.153
68.352	4.4	P_U	2.0	n/a	n/a	2.0	1.787	Phon/Phon_run-01/PM027.wav	2.0	1	1.537
72.756	4.4	P_O	1.0	n/a	n/a	1.0	1.399	Phon/Phon_run-01/PC021.wav	1.0	1	1.149
77.15899999999998	4.496	P_C	1.0	n/a	n/a	1.0	0.8029999999999999	Phon/Phon_run-01/ContS29.wav	1.0	1	1.553
81.66199999999998	3.3680000000000003	P_R	1.0	n/a	n/a	1.0	1.6159999999999999	Phon/Phon_run-01/stereo_PR25.wav	1.0	1	1.366
85.03200000000002	3.95	P_O	1.0	n/a	n/a	1.0	1.505	Phon/Phon_run-01/PC012.wav	1.0	1	1.255
88.985	3.95	P_U	2.0	n/a	n/a	2.0	1.382	Phon/Phon_run-01/PM003.wav	2.0	1	1.132
92.93799999999999	3.939	P_O	1.0	n/a	n/a	1.0	1.237	Phon/Phon_run-01/PC004.wav	1.0	1	0.9870000000000001
96.891	3.59	P_C	1.0	n/a	n/a	1.0	0.251	Phon/Phon_run-01/ContS27.wav	1.0	1	1.001
100.493	4.296	P_U	2.0	n/a	n/a	2.0	1.183	Phon/Phon_run-01/stereo_PU21.wav	2.0	1	0.933
104.79700000000001	3.862	P_R	1.0	n/a	n/a	1.0	1.083	Phon/Phon_run-01/stereo_PR26.wav	1.0	1	0.833
108.666	3.95	P_O	1.0	n/a	n/a	n/a	n/a	Phon/Phon_run-01/PC026.wav	n/a	0	n/a
112.619	3.5	P_O	1.0	n/a	n/a	1.0	1.436	Phon/Phon_run-01/PC025.wav	1.0	1	1.186
116.12200000000001	4.013	P_C	1.0	n/a	n/a	1.0	0.748	Phon/Phon_run-01/ContS23.wav	1.0	1	1.498
120.14200000000001	3.792	P_R	1.0	n/a	n/a	1.0	1.169	Phon/Phon_run-01/stereo_PR18.wav	1.0	1	0.919
123.945	3.346	P_U	2.0	n/a	n/a	2.0	1.443	Phon/Phon_run-01/stereo_PU19.wav	2.0	1	1.193
127.29700000000001	3.891	P_R	1.0	n/a	n/a	1.0	1.275	Phon/Phon_run-01/stereo_PR03.wav	1.0	1	1.025
131.2	3.355	P_O	1.0	n/a	n/a	2.0	1.838	Phon/Phon_run-01/PC003.wav	2.0	0	1.588
134.57	3.951	P_C	1.0	n/a	n/a	1.0	0.58	Phon/Phon_run-01/ContS15.wav	1.0	1	1.33
138.523	3.74	P_U	2.0	n/a	n/a	2.0	1.973	Phon/Phon_run-01/stereo_PU16.wav	2.0	1	1.723
142.276	3.95	P_R	1.0	n/a	n/a	1.0	1.305	Phon/Phon_run-01/stereo_PR10.wav	1.0	1	1.055
146.22899999999996	3.464	P_C	1.0	n/a	n/a	2.0	1.025	Phon/Phon_run-01/ContS09.wav	2.0	0	1.775
149.69799999999995	4.275	P_R	1.0	n/a	n/a	1.0	1.284	Phon/Phon_run-01/stereo_PR04.wav	1.0	1	1.034
153.984	3.95	P_U	2.0	n/a	n/a	2.0	2.0	Phon/Phon_run-01/PM023.wav	2.0	1	1.75
157.938	4.4	P_U	2.0	n/a	n/a	2.0	1.367	Phon/Phon_run-01/PM001.wav	2.0	1	1.117
162.341	3.665	P_C	1.0	n/a	n/a	1.0	1.069	Phon/Phon_run-01/ContS35.wav	1.0	1	1.819
166.01	3.463	P_O	1.0	n/a	n/a	1.0	1.195	Phon/Phon_run-01/PC017.wav	1.0	1	0.9450000000000001
169.48	4.332	P_R	1.0	n/a	n/a	1.0	1.3769999999999998	Phon/Phon_run-01/stereo_PR19.wav	1.0	1	1.1269999999999998
173.81599999999997	4.083	P_C	1.0	n/a	n/a	1.0	0.34299999999999997	Phon/Phon_run-01/ContS33.wav	1.0	1	1.093
177.903	3.5	P_R	1.0	n/a	n/a	1.0	1.238	Phon/Phon_run-01/stereo_PR17.wav	1.0	1	0.988
181.40599999999998	4.2669999999999995	P_U	2.0	n/a	n/a	1.0	1.726	Phon/Phon_run-01/PM009.wav	1.0	0	1.476
185.675	3.4389999999999996	P_R	1.0	n/a	n/a	1.0	1.06	Phon/Phon_run-01/stereo_PR09.wav	1.0	1	0.81
