onset	duration	trial_type	correct	window1_response	window1_RT	window2_response	window2_RT	stim_file	calculated_response	calculated_accuracy	calculated_RT
1.084	4.2	S_U	2.0	n/a	n/a	2.0	2.702	Sem/Sem_run-01/stereo_1SU41A0.wav	2.0	1	2.452
5.287000000000001	3.596	S_C	1.0	n/a	n/a	1.0	0.192	Sem/Sem_run-01/ContS29.wav	1.0	1	0.942
8.89	3.425	S_U	2.0	n/a	n/a	2.0	2.0540000000000003	Sem/Sem_run-01/stereo_2SU87A0.wav	2.0	1	1.8040000000000003
12.325999999999999	3.933	S_H	1.0	n/a	n/a	1.0	1.337	Sem/Sem_run-01/stereo_1SH13A0.wav	1.0	1	1.087
16.262	4.323	S_H	1.0	n/a	n/a	1.0	1.58	Sem/Sem_run-01/stereo_1SH05A0.wav	1.0	1	1.33
20.599	4.073	S_C	1.0	n/a	n/a	1.0	0.196	Sem/Sem_run-01/ContS31.wav	1.0	1	0.946
24.685	3.869	S_L	1.0	n/a	n/a	1.0	1.5959999999999999	Sem/Sem_run-01/stereo_2SL63A0.wav	1.0	1	1.346
28.555	3.75	S_L	1.0	n/a	n/a	2.0	1.324	Sem/Sem_run-01/stereo_1SL29A0.wav	2.0	0	1.074
32.308	4.3660000000000005	S_U	2.0	n/a	n/a	2.0	1.425	Sem/Sem_run-01/stereo_2SU78A0.wav	2.0	1	1.175
36.678000000000004	3.3	S_L	1.0	n/a	n/a	2.0	1.4040000000000001	Sem/Sem_run-01/stereo_1SL17A0.wav	2.0	0	1.154
39.98	3.884	S_C	1.0	n/a	n/a	1.0	0.10099999999999999	Sem/Sem_run-01/ContS05.wav	1.0	1	0.851
43.867	4.371	S_H	1.0	n/a	n/a	1.0	1.2819999999999998	Sem/Sem_run-01/stereo_2SH58A0.wav	1.0	1	1.0319999999999998
48.253	4.329	S_L	1.0	n/a	n/a	2.0	1.57	Sem/Sem_run-01/stereo_2SL72A0.wav	2.0	0	1.32
52.59	3.94	S_H	1.0	n/a	n/a	1.0	1.294	Sem/Sem_run-01/stereo_2SH57A0.wav	1.0	1	1.044
56.543	4.2	S_U	2.0	n/a	n/a	2.0	1.6740000000000002	Sem/Sem_run-01/stereo_2SU83A0.wav	2.0	1	1.4240000000000002
60.746	3.474	S_C	1.0	n/a	n/a	1.0	0.063	Sem/Sem_run-01/ContS11.wav	1.0	1	0.813
64.232	4.271	S_L	1.0	n/a	n/a	1.0	1.359	Sem/Sem_run-01/stereo_1SL26A0.wav	1.0	1	1.109
68.51899999999999	3.91	S_L	1.0	n/a	n/a	2.0	1.8630000000000002	Sem/Sem_run-01/stereo_1SL25A0.wav	2.0	0	1.613
72.438	4.479	S_C	1.0	n/a	n/a	1.0	0.146	Sem/Sem_run-01/ContS25.wav	1.0	1	0.896
76.925	3.378	S_U	2.0	n/a	n/a	n/a	n/a	Sem/Sem_run-01/stereo_2SU81A0.wav	n/a	0	n/a
80.311	3.42	S_L	1.0	n/a	n/a	n/a	n/a	Sem/Sem_run-01/stereo_1SL27A0.wav	n/a	0	n/a
83.74700000000001	4.3439999999999985	S_L	1.0	n/a	n/a	1.0	1.754	Sem/Sem_run-01/stereo_1SL30A0.wav	1.0	1	1.504
88.1	3.909	S_L	1.0	n/a	n/a	1.0	2.358	Sem/Sem_run-01/stereo_2SL71A0.wav	1.0	1	2.108
92.02	3.867	S_H	1.0	n/a	n/a	n/a	n/a	Sem/Sem_run-01/stereo_1SH04A0.wav	n/a	0	n/a
95.889	3.828	S_U	2.0	n/a	n/a	2.0	1.138	Sem/Sem_run-01/stereo_1SU37A0.wav	2.0	1	0.8879999999999999
99.726	4.565	S_C	1.0	n/a	n/a	1.0	0.011000000000000001	Sem/Sem_run-01/ContS35.wav	1.0	1	0.761
104.296	3.3	S_U	2.0	n/a	n/a	2.0	1.0959999999999999	Sem/Sem_run-01/stereo_1SU35A0.wav	2.0	1	0.8460000000000001
107.598	3.477	S_L	1.0	n/a	n/a	n/a	n/a	Sem/Sem_run-01/stereo_2SL65A0.wav	n/a	0	n/a
111.084	3.83	S_H	1.0	n/a	n/a	1.0	1.858	Sem/Sem_run-01/stereo_1SH07A0.wav	1.0	1	1.608
114.92	4.3439999999999985	S_C	1.0	n/a	n/a	1.0	0.257	Sem/Sem_run-01/ContS07.wav	1.0	1	1.0070000000000001
119.274	3.5	S_H	1.0	n/a	n/a	n/a	n/a	Sem/Sem_run-01/stereo_1SH03A0.wav	n/a	0	n/a
122.77600000000001	3.919	S_U	2.0	n/a	n/a	2.0	1.7590000000000001	Sem/Sem_run-01/stereo_1SU45A0.wav	2.0	1	1.509
126.696	3.5	S_H	1.0	n/a	n/a	1.0	1.649	Sem/Sem_run-01/stereo_1SH06A0.wav	1.0	1	1.399
130.19899999999998	3.392	S_L	1.0	n/a	n/a	n/a	n/a	Sem/Sem_run-01/stereo_2SL62A0.wav	n/a	0	n/a
133.601	3.54	S_C	1.0	n/a	n/a	1.0	0.161	Sem/Sem_run-01/ContS19.wav	1.0	1	0.911
137.154	4.4	S_H	1.0	n/a	n/a	1.0	1.5119999999999998	Sem/Sem_run-01/stereo_1SH15A0.wav	1.0	1	1.2619999999999998
141.55700000000004	3.342	S_H	1.0	n/a	n/a	1.0	1.409	Sem/Sem_run-01/stereo_1SH11A0.wav	1.0	1	1.159
144.91	3.385	S_U	2.0	n/a	n/a	2.0	1.19	Sem/Sem_run-01/stereo_1SU44A0.wav	2.0	1	0.94
148.296	3.4160000000000004	S_H	1.0	n/a	n/a	1.0	1.155	Sem/Sem_run-01/stereo_2SH56A0.wav	1.0	1	0.905
151.715	3.849	S_U	2.0	n/a	n/a	2.0	1.538	Sem/Sem_run-01/stereo_2SU82A0.wav	2.0	1	1.288
155.56799999999996	3.934	S_C	1.0	1.0	0.475	1.0	0.535	Sem/Sem_run-01/ContS13.wav	1.0	1	0.475
159.504	4.309	S_L	1.0	n/a	n/a	1.0	1.064	Sem/Sem_run-01/stereo_2SL64A0.wav	1.0	1	0.8140000000000001
163.82399999999996	4.413	S_C	1.0	1.0	0.6890000000000001	1.0	0.69	Sem/Sem_run-01/ContS17.wav	1.0	1	0.6890000000000001
168.24400000000003	4.2	S_U	2.0	n/a	n/a	1.0	1.4240000000000002	Sem/Sem_run-01/stereo_2SU90A0.wav	1.0	0	1.1740000000000002
172.447	3.846	S_U	2.0	n/a	n/a	2.0	2.373	Sem/Sem_run-01/stereo_2SU88A0.wav	2.0	1	2.123
176.3	3.3939999999999997	S_C	1.0	n/a	n/a	1.0	0.159	Sem/Sem_run-01/ContS01.wav	1.0	1	0.909
179.703	4.013	S_C	1.0	1.0	0.6890000000000001	1.0	0.67	Sem/Sem_run-01/ContS23.wav	1.0	1	0.6890000000000001
183.72299999999998	4.227	S_H	1.0	n/a	n/a	2.0	2.338	Sem/Sem_run-01/stereo_1SH08A0.wav	2.0	0	2.088
