onset	duration	trial_type	correct	window1_response	window1_RT	window2_response	window2_RT	stim_file	calculated_response	calculated_accuracy	calculated_RT
1.0934	7.632999999999999	G_P	2.0	n/a	n/a	2.0	4.209	Gram/Gram_run-02/stereo_1MP45U4.wav	2.0	1	2.0779999999999994
8.7323	7.315	G_F	2.0	n/a	n/a	2.0	4.149	Gram/Gram_run-02/stereo_1MF20U4.wav	2.0	1	3.4389999999999996
16.0543	6.2829999999999995	G_P	2.0	n/a	n/a	n/a	n/a	Gram/Gram_run-02/stereo_1MP34U2.wav	n/a	0	n/a
22.3421	6.195	G_C	1.0	1.0	0.728	1.0	1.33	Gram/Gram_run-02/CoM06d.wav	1.0	1	0.728
28.5465	6.221	G_G	1.0	n/a	n/a	n/a	n/a	Gram/Gram_run-02/stereo_1MF02G1.wav	n/a	0	n/a
34.769	5.801	G_F	2.0	n/a	n/a	2.0	3.01	Gram/Gram_run-02/stereo_2MF64U3.wav	2.0	1	3.76
40.5743	6.78	G_C	1.0	n/a	n/a	1.0	0.107	Gram/Gram_run-02/CoM07l.wav	1.0	1	0.857
47.3625	6.084	G_F	2.0	n/a	n/a	2.0	3.5980000000000003	Gram/Gram_run-02/stereo_2MF56U2.wav	2.0	1	4.348000000000001
53.4512	7.5470000000000015	G_F	2.0	n/a	n/a	2.0	3.891	Gram/Gram_run-02/stereo_1MF21U4.wav	2.0	1	3.1399999999999997
61.0065	6.482	G_G	1.0	n/a	n/a	1.0	4.189	Gram/Gram_run-02/stereo_1MF24G4.wav	1.0	1	1.8280000000000003
67.4946	6.7810000000000015	G_P	2.0	n/a	n/a	2.0	4.5280000000000005	Gram/Gram_run-02/stereo_2MP76U1.wav	2.0	1	2.266000000000001
74.2828	6.643	G_P	2.0	n/a	n/a	2.0	3.667	Gram/Gram_run-02/stereo_2MP80U2.wav	2.0	1	2.711
80.9376	7.69	G_C	1.0	n/a	n/a	1.0	0.184	Gram/Gram_run-02/CoM06e.wav	1.0	1	0.9339999999999999
88.639	6.352	G_F	2.0	n/a	n/a	2.0	4.244	Gram/Gram_run-02/stereo_2MF63U3.wav	2.0	1	4.994
94.9947	5.801	G_G	1.0	n/a	n/a	2.0	4.506	Gram/Gram_run-02/stereo_1MF18G3.wav	2.0	0	3.123
100.8001	7.1129999999999995	G_P	2.0	n/a	n/a	2.0	4.439	Gram/Gram_run-02/stereo_1MP44U4.wav	2.0	1	2.082
107.9218	6.78	G_C	1.0	n/a	n/a	1.0	0.09	Gram/Gram_run-02/CoM05b.wav	1.0	1	0.84
114.7101	6.7360000000000015	G_F	2.0	n/a	n/a	1.0	3.52	Gram/Gram_run-02/stereo_2MF58U2.wav	1.0	0	4.27
121.4494	6.0889999999999995	G_P	2.0	n/a	n/a	2.0	3.4530000000000003	Gram/Gram_run-02/stereo_2MP87U3.wav	2.0	1	2.2410000000000005
127.5529	7.6370000000000005	G_P	2.0	n/a	n/a	2.0	5.03	Gram/Gram_run-02/stereo_2MP73U1.wav	2.0	1	3.003
135.1929	7.305	G_C	1.0	n/a	n/a	1.0	0.698	Gram/Gram_run-02/CoM02l.wav	1.0	1	1.448
142.4994	5.983	G_G	1.0	n/a	n/a	1.0	2.895	Gram/Gram_run-02/stereo_1MP42G3.wav	1.0	1	1.9729999999999999
148.4871	5.36	G_P	2.0	n/a	n/a	2.0	2.9989999999999997	Gram/Gram_run-02/stereo_1MP32U2.wav	2.0	1	1.9929999999999999
153.8576	7.145	G_C	1.0	n/a	n/a	1.0	0.002	Gram/Gram_run-02/CoM09e.wav	1.0	1	0.752
161.0128	6.28	G_F	2.0	n/a	n/a	n/a	n/a	Gram/Gram_run-02/stereo_1MF19U4.wav	n/a	0	n/a
167.3005	6.63	G_C	1.0	n/a	n/a	1.0	0.426	Gram/Gram_run-02/CoM07b.wav	1.0	1	1.176
173.9386	7.195	G_G	1.0	n/a	n/a	2.0	3.8689999999999998	Gram/Gram_run-02/stereo_2MP89G3.wav	2.0	0	2.531
181.1437	5.1739999999999995	G_F	2.0	n/a	n/a	2.0	2.9360000000000004	Gram/Gram_run-02/stereo_1MF07U2.wav	2.0	1	3.6860000000000004
186.3308	6.944	G_P	2.0	n/a	n/a	2.0	4.519	Gram/Gram_run-02/stereo_2MP88U3.wav	2.0	1	3.476
193.2858	6.0889999999999995	G_G	1.0	n/a	n/a	2.0	3.1010000000000004	Gram/Gram_run-02/stereo_2MF66G3.wav	2.0	0	1.7270000000000008
199.3896	6.5	G_C	1.0	n/a	n/a	1.0	0.28	Gram/Gram_run-02/CoM01e.wav	1.0	1	1.03
205.8946	6.43	G_P	2.0	n/a	n/a	2.0	4.706	Gram/Gram_run-02/stereo_1MP43U4.wav	2.0	1	2.4240000000000004
212.3325	6.19	G_G	1.0	n/a	n/a	1.0	4.463	Gram/Gram_run-02/stereo_2MP84G2.wav	1.0	1	3.531
218.537	7.114	G_G	1.0	n/a	n/a	1.0	5.263999999999999	Gram/Gram_run-02/stereo_1MP29G1.wav	1.0	1	3.0759999999999983
225.6587	6.731	G_F	2.0	n/a	n/a	n/a	n/a	Gram/Gram_run-02/stereo_2MF53U1.wav	n/a	0	n/a
232.3969	6.015	G_C	1.0	n/a	n/a	1.0	0.166	Gram/Gram_run-02/CoM02d.wav	1.0	1	0.916
238.4179	7.17	G_G	1.0	n/a	n/a	2.0	4.605	Gram/Gram_run-02/stereo_2MF71G4.wav	2.0	0	2.356
245.5909	5.33	G_C	1.0	n/a	n/a	1.0	0.081	Gram/Gram_run-02/CoM06b.wav	1.0	1	0.831
250.9316	6.9689999999999985	G_F	2.0	n/a	n/a	2.0	5.644	Gram/Gram_run-02/stereo_2MF54U1.wav	2.0	1	5.074
257.9045	7.6	G_G	1.0	n/a	n/a	1.0	5.872000000000001	Gram/Gram_run-02/stereo_2MF49G1.wav	1.0	1	3.6830000000000007
