onset	duration	trial_type	correct	window1_response	window1_RT	window2_response	window2_RT	stim_file	calculated_response	calculated_accuracy	calculated_RT
1.084	4.2010000000000005	S_U	2.0	n/a	n/a	2.0	1.6059999999999999	Sem/Sem_run-02/stereo_1SU33A0.wav	2.0	1	1.356
5.287000000000001	3.486	S_U	2.0	n/a	n/a	2.0	1.547	Sem/Sem_run-02/stereo_2SU85A0.wav	2.0	1	1.297
8.773	3.8539999999999996	S_H	1.0	n/a	n/a	1.0	1.787	Sem/Sem_run-02/stereo_2SH50A0.wav	1.0	1	1.537
12.643	3.454	S_C	1.0	n/a	n/a	1.0	0.29100000000000004	Sem/Sem_run-02/ContS08.wav	1.0	1	1.041
16.112000000000002	4.33	S_H	1.0	n/a	n/a	2.0	1.494	Sem/Sem_run-02/stereo_1SH10A0.wav	2.0	0	1.244
20.449	3.872	S_L	1.0	n/a	n/a	1.0	1.435	Sem/Sem_run-02/stereo_2SL61A0.wav	1.0	1	1.185
24.335	3.885	S_L	1.0	n/a	n/a	1.0	1.453	Sem/Sem_run-02/stereo_1SL23A0.wav	1.0	1	1.203
28.222	4.2	S_U	2.0	n/a	n/a	2.0	0.615	Sem/Sem_run-02/stereo_1SU42A0.wav	2.0	1	0.365
32.425	3.321	S_L	1.0	n/a	n/a	1.0	1.53	Sem/Sem_run-02/stereo_1SL16A0.wav	1.0	1	1.28
35.761	3.59	S_C	1.0	n/a	n/a	1.0	0.665	Sem/Sem_run-02/ContS26.wav	1.0	1	1.415
39.364	4.4	S_H	1.0	n/a	n/a	2.0	1.4280000000000002	Sem/Sem_run-02/stereo_2SH60A0.wav	2.0	0	1.1780000000000002
43.767	4.311	S_L	1.0	n/a	n/a	1.0	1.39	Sem/Sem_run-02/stereo_2SL75A0.wav	1.0	1	1.14
48.087	3.912	S_H	1.0	n/a	n/a	1.0	1.5430000000000001	Sem/Sem_run-02/stereo_2SH59A0.wav	1.0	1	1.293
52.007	4.4	S_U	2.0	n/a	n/a	1.0	1.7690000000000001	Sem/Sem_run-02/stereo_2SU84A0.wav	1.0	0	1.519
56.41	3.4210000000000003	S_U	2.0	n/a	n/a	2.0	1.212	Sem/Sem_run-02/stereo_1SU43A0.wav	2.0	1	0.962
59.846	3.8539999999999996	S_C	1.0	n/a	n/a	1.0	0.618	Sem/Sem_run-02/ContS02.wav	1.0	1	1.368
63.716	4.37	S_L	1.0	n/a	n/a	1.0	1.4480000000000002	Sem/Sem_run-02/stereo_1SL19A0.wav	1.0	1	1.1980000000000002
68.086	3.862	S_L	1.0	n/a	n/a	1.0	1.393	Sem/Sem_run-02/stereo_1SL18A0.wav	1.0	1	1.143
71.955	4.462	S_C	1.0	n/a	n/a	1.0	0.242	Sem/Sem_run-02/ContS22.wav	1.0	1	0.992
76.425	3.406	S_L	1.0	n/a	n/a	1.0	1.4809999999999999	Sem/Sem_run-02/stereo_1SL21A0.wav	1.0	1	1.231
79.845	3.355	S_U	2.0	n/a	n/a	1.0	1.919	Sem/Sem_run-02/stereo_1SU36A0.wav	1.0	0	1.669
83.214	4.324	S_C	1.0	n/a	n/a	1.0	0.637	Sem/Sem_run-02/ContS04.wav	1.0	1	1.3869999999999998
87.551	4.253	S_L	1.0	n/a	n/a	1.0	0.9570000000000001	Sem/Sem_run-02/stereo_1SL24A0.wav	1.0	1	0.7070000000000001
91.804	3.839	S_L	1.0	n/a	n/a	1.0	1.014	Sem/Sem_run-02/stereo_2SL70A0.wav	1.0	1	0.764
95.657	4.395	S_C	1.0	n/a	n/a	1.0	0.494	Sem/Sem_run-02/ContS14.wav	1.0	1	1.244
100.06	3.8739999999999997	S_H	1.0	n/a	n/a	1.0	1.4380000000000002	Sem/Sem_run-02/stereo_1SH09A0.wav	1.0	1	1.1880000000000002
103.947	3.75	S_U	2.0	n/a	n/a	2.0	1.2990000000000002	Sem/Sem_run-02/stereo_1SU32A0.wav	2.0	1	1.0490000000000002
107.7	3.641	S_C	1.0	n/a	n/a	1.0	0.7170000000000001	Sem/Sem_run-02/ContS34.wav	1.0	1	1.467
111.352	3.338	S_U	2.0	n/a	n/a	2.0	1.104	Sem/Sem_run-02/stereo_1SU31A0.wav	2.0	1	0.8540000000000001
114.705	3.45	S_L	1.0	n/a	n/a	1.0	1.831	Sem/Sem_run-02/stereo_2SL68A0.wav	1.0	1	1.581
118.158	3.8510000000000004	S_H	1.0	n/a	n/a	1.0	1.3940000000000001	Sem/Sem_run-02/stereo_1SH14A0.wav	1.0	1	1.144
122.011	3.459	S_H	1.0	n/a	n/a	1.0	1.515	Sem/Sem_run-02/stereo_1SH01A0.wav	1.0	1	1.265
125.48	3.512	S_C	1.0	1.0	0.622	n/a	n/a	Sem/Sem_run-02/ContS16.wav	1.0	1	0.622
128.999	3.489	S_H	1.0	n/a	n/a	1.0	1.105	Sem/Sem_run-02/stereo_1SH12A0.wav	1.0	1	0.855
132.502	3.8489999999999998	S_U	2.0	n/a	n/a	2.0	1.788	Sem/Sem_run-02/stereo_2SU86A0.wav	2.0	1	1.538
136.355	3.46	S_L	1.0	n/a	n/a	1.0	1.584	Sem/Sem_run-02/stereo_1SL28A0.wav	1.0	1	1.334
139.82399999999998	4.53	S_C	1.0	n/a	n/a	1.0	0.336	Sem/Sem_run-02/ContS32.wav	1.0	1	1.086
144.361	4.351	S_H	1.0	n/a	n/a	1.0	1.1740000000000002	Sem/Sem_run-02/stereo_2SH52A0.wav	1.0	1	0.9240000000000002
148.715	3.48	S_H	1.0	n/a	n/a	1.0	1.403	Sem/Sem_run-02/stereo_2SH47A0.wav	1.0	1	1.153
152.201	3.3	S_H	1.0	n/a	n/a	1.0	1.238	Sem/Sem_run-02/stereo_2SH53A0.wav	1.0	1	0.988
155.503	3.847	S_U	2.0	n/a	n/a	2.0	1.551	Sem/Sem_run-02/stereo_1SU39A0.wav	2.0	1	1.301
159.356	3.923	S_C	1.0	1.0	0.685	n/a	n/a	Sem/Sem_run-02/ContS10.wav	1.0	1	0.685
163.292	3.7510000000000003	S_U	2.0	n/a	n/a	1.0	1.41	Sem/Sem_run-02/stereo_2SU80A0.wav	1.0	0	1.16
167.045	4.2	S_L	1.0	n/a	n/a	1.0	1.426	Sem/Sem_run-02/stereo_2SL66A0.wav	1.0	1	1.176
171.24900000000005	3.99	S_C	1.0	n/a	n/a	1.0	0.1	Sem/Sem_run-02/ContS20.wav	1.0	1	0.85
175.252	4.041	S_C	1.0	n/a	n/a	1.0	0.198	Sem/Sem_run-02/ContS28.wav	1.0	1	0.948
179.305	4.2	S_U	2.0	n/a	n/a	2.0	1.4809999999999999	Sem/Sem_run-02/stereo_2SU89A0.wav	2.0	1	1.231
183.508	4.368	S_H	1.0	n/a	n/a	1.0	1.374	Sem/Sem_run-02/stereo_2SH46A0.wav	1.0	1	1.124
