onset	duration	trial_type	correct	window1_response	window1_RT	window2_response	window2_RT	stim_file	calculated_response	calculated_accuracy	calculated_RT
1.101	3.4539999999999997	P_R	1.0	n/a	n/a	1.0	1.254	Phon/Phon_run-01/stereo_PR01.wav	1.0	1	1.004
4.5710000000000015	3.767	P_O	1.0	n/a	n/a	1.0	0.981	Phon/Phon_run-01/PC018.wav	1.0	1	0.731
8.341000000000001	3.391	P_O	1.0	n/a	n/a	1.0	1.121	Phon/Phon_run-01/PC009.wav	1.0	1	0.871
11.744000000000002	4.374	P_C	1.0	n/a	n/a	1.0	0.297	Phon/Phon_run-01/ContS11.wav	1.0	1	1.047
16.132	3.345	P_U	2.0	n/a	n/a	n/a	n/a	Phon/Phon_run-01/PM002.wav	n/a	0	n/a
19.485	4.4510000000000005	P_C	1.0	n/a	n/a	1.0	1.148	Phon/Phon_run-01/ContS21.wav	1.0	1	1.898
23.939	4.382	P_O	1.0	n/a	n/a	1.0	0.609	Phon/Phon_run-01/PC005.wav	1.0	1	0.359
28.326	3.3	P_U	2.0	n/a	n/a	n/a	n/a	Phon/Phon_run-01/stereo_PU26.wav	n/a	0	n/a
31.629	4.324	P_C	1.0	n/a	n/a	1.0	0.8370000000000001	Phon/Phon_run-01/ContS03.wav	1.0	1	1.5870000000000002
35.967	4.378	P_R	1.0	n/a	n/a	1.0	1.1159999999999999	Phon/Phon_run-01/stereo_PR29.wav	1.0	1	0.8660000000000001
40.354	3.4810000000000003	P_U	2.0	n/a	n/a	n/a	n/a	Phon/Phon_run-01/PM020.wav	n/a	0	n/a
43.841	4.393	P_O	1.0	n/a	n/a	1.0	1.375	Phon/Phon_run-01/PC027.wav	1.0	1	1.125
48.245	4.4	P_R	1.0	n/a	n/a	1.0	2.529	Phon/Phon_run-01/stereo_PR11.wav	1.0	1	2.279
52.648999999999994	3.884	P_C	1.0	n/a	n/a	1.0	0.978	Phon/Phon_run-01/ContS05.wav	1.0	1	1.728
56.536	3.891	P_U	2.0	n/a	n/a	2.0	0.8109999999999999	Phon/Phon_run-01/stereo_PU28.wav	2.0	1	0.5609999999999999
60.43899999999999	4.4	P_O	1.0	n/a	n/a	1.0	2.784	Phon/Phon_run-01/PC013.wav	1.0	1	2.534
64.844	3.513	P_C	1.0	n/a	n/a	1.0	1.55	Phon/Phon_run-01/ContS17.wav	1.0	1	2.3
68.36399999999999	4.4	P_U	2.0	n/a	n/a	1.0	2.517	Phon/Phon_run-01/PM027.wav	1.0	0	2.267
72.768	4.4	P_O	1.0	n/a	n/a	1.0	1.751	Phon/Phon_run-01/PC021.wav	1.0	1	1.501
77.172	4.496	P_C	1.0	n/a	n/a	2.0	0.272	Phon/Phon_run-01/ContS29.wav	2.0	0	1.022
81.676	3.3680000000000003	P_R	1.0	n/a	n/a	2.0	1.023	Phon/Phon_run-01/stereo_PR25.wav	2.0	0	0.7729999999999999
85.046	3.95	P_O	1.0	n/a	n/a	1.0	1.483	Phon/Phon_run-01/PC012.wav	1.0	1	1.233
88.999	3.95	P_U	2.0	n/a	n/a	1.0	2.03	Phon/Phon_run-01/PM003.wav	1.0	0	1.7799999999999998
92.95299999999999	3.939	P_O	1.0	n/a	n/a	1.0	1.2109999999999999	Phon/Phon_run-01/PC004.wav	1.0	1	0.9610000000000001
96.90700000000001	3.59	P_C	1.0	n/a	n/a	2.0	1.42	Phon/Phon_run-01/ContS27.wav	2.0	0	2.17
100.51	4.296	P_U	2.0	n/a	n/a	1.0	2.83	Phon/Phon_run-01/stereo_PU21.wav	1.0	0	2.58
104.814	3.862	P_R	1.0	n/a	n/a	1.0	1.123	Phon/Phon_run-01/stereo_PR26.wav	1.0	1	0.873
108.684	3.95	P_O	1.0	n/a	n/a	n/a	n/a	Phon/Phon_run-01/PC026.wav	n/a	0	n/a
112.63799999999999	3.5	P_O	1.0	n/a	n/a	n/a	n/a	Phon/Phon_run-01/PC025.wav	n/a	0	n/a
116.141	4.013	P_C	1.0	n/a	n/a	n/a	n/a	Phon/Phon_run-01/ContS23.wav	n/a	0	n/a
120.162	3.792	P_R	1.0	n/a	n/a	1.0	1.151	Phon/Phon_run-01/stereo_PR18.wav	1.0	1	0.901
123.965	3.346	P_U	2.0	n/a	n/a	1.0	0.89	Phon/Phon_run-01/stereo_PU19.wav	1.0	0	0.64
127.318	3.891	P_R	1.0	n/a	n/a	1.0	0.9940000000000001	Phon/Phon_run-01/stereo_PR03.wav	1.0	1	0.744
131.222	3.355	P_O	1.0	n/a	n/a	1.0	0.9590000000000001	Phon/Phon_run-01/PC003.wav	1.0	1	0.709
134.592	3.951	P_C	1.0	1.0	0.495	n/a	n/a	Phon/Phon_run-01/ContS15.wav	1.0	1	0.495
138.546	3.74	P_U	2.0	n/a	n/a	1.0	0.902	Phon/Phon_run-01/stereo_PU16.wav	1.0	0	0.652
142.299	3.95	P_R	1.0	n/a	n/a	1.0	1.699	Phon/Phon_run-01/stereo_PR10.wav	1.0	1	1.449
146.253	3.464	P_C	1.0	n/a	n/a	1.0	1.722	Phon/Phon_run-01/ContS09.wav	1.0	1	2.472
149.72299999999996	4.275	P_R	1.0	n/a	n/a	1.0	2.051	Phon/Phon_run-01/stereo_PR04.wav	1.0	1	1.8010000000000002
154.01	3.95	P_U	2.0	n/a	n/a	n/a	n/a	Phon/Phon_run-01/PM023.wav	1.0	0	3.479
157.964	4.4	P_U	2.0	1.0	0.529	n/a	n/a	Phon/Phon_run-01/PM001.wav	n/a	0	n/a
162.368	3.665	P_C	1.0	n/a	n/a	1.0	1.521	Phon/Phon_run-01/ContS35.wav	1.0	1	2.271
166.03799999999995	3.463	P_O	1.0	n/a	n/a	1.0	1.6580000000000001	Phon/Phon_run-01/PC017.wav	1.0	1	1.408
169.50799999999995	4.332	P_R	1.0	n/a	n/a	1.0	1.05	Phon/Phon_run-01/stereo_PR19.wav	1.0	1	0.8
173.845	4.083	P_C	1.0	n/a	n/a	1.0	0.433	Phon/Phon_run-01/ContS33.wav	1.0	1	1.183
177.93200000000004	3.5	P_R	1.0	n/a	n/a	1.0	1.9609999999999999	Phon/Phon_run-01/stereo_PR17.wav	1.0	1	1.711
181.43599999999998	4.2669999999999995	P_U	2.0	n/a	n/a	1.0	1.008	Phon/Phon_run-01/PM009.wav	1.0	0	0.758
185.706	3.4389999999999996	P_R	1.0	n/a	n/a	1.0	1.181	Phon/Phon_run-01/stereo_PR09.wav	1.0	1	0.931
