onset	duration	trial_type	correct	window1_response	window1_RT	window2_response	window2_RT	stim_file	calculated_response	calculated_accuracy	calculated_RT
1.084	3.4539999999999997	P_R	1.0	n/a	n/a	1.0	1.929	Phon/Phon_run-01/stereo_PR01.wav	1.0	1	1.679
4.553	3.767	P_O	1.0	n/a	n/a	2.0	1.5430000000000001	Phon/Phon_run-01/PC018.wav	2.0	0	1.293
8.323	3.391	P_O	1.0	n/a	n/a	n/a	n/a	Phon/Phon_run-01/PC009.wav	n/a	0	n/a
11.725999999999999	4.374	P_C	1.0	1.0	0.256	1.0	0.166	Phon/Phon_run-01/ContS11.wav	1.0	1	0.256
16.113	3.345	P_U	2.0	n/a	n/a	2.0	1.7109999999999999	Phon/Phon_run-01/PM002.wav	2.0	1	1.461
19.465	4.4510000000000005	P_C	1.0	n/a	n/a	1.0	0.6759999999999999	Phon/Phon_run-01/ContS21.wav	1.0	1	1.426
23.919	4.382	P_O	1.0	n/a	n/a	1.0	1.75	Phon/Phon_run-01/PC005.wav	1.0	1	1.5
28.30599999999999	3.3	P_U	2.0	n/a	n/a	n/a	n/a	Phon/Phon_run-01/stereo_PU26.wav	n/a	0	n/a
31.608	4.324	P_C	1.0	2.0	0.28800000000000003	1.0	0.767	Phon/Phon_run-01/ContS03.wav	2.0	0	0.28800000000000003
35.945	4.378	P_R	1.0	n/a	n/a	1.0	1.287	Phon/Phon_run-01/stereo_PR29.wav	1.0	1	1.037
40.332	3.4810000000000003	P_U	2.0	n/a	n/a	n/a	n/a	Phon/Phon_run-01/PM020.wav	2.0	1	2.9490000000000003
43.81800000000001	4.393	P_O	1.0	2.0	0.46799999999999997	1.0	1.758	Phon/Phon_run-01/PC027.wav	1.0	1	1.508
48.222	4.4	P_R	1.0	n/a	n/a	1.0	1.756	Phon/Phon_run-01/stereo_PR11.wav	1.0	1	1.506
52.625	3.884	P_C	1.0	n/a	n/a	1.0	1.147	Phon/Phon_run-01/ContS05.wav	1.0	1	1.897
56.512	3.891	P_U	2.0	n/a	n/a	1.0	2.735	Phon/Phon_run-01/stereo_PU28.wav	1.0	0	2.485
60.415	4.4	P_O	1.0	n/a	n/a	1.0	1.8159999999999998	Phon/Phon_run-01/PC013.wav	1.0	1	1.566
64.818	3.513	P_C	1.0	n/a	n/a	1.0	1.3769999999999998	Phon/Phon_run-01/ContS17.wav	1.0	1	2.127
68.33800000000001	4.4	P_U	2.0	n/a	n/a	1.0	1.935	Phon/Phon_run-01/PM027.wav	1.0	0	1.685
72.742	4.4	P_O	1.0	n/a	n/a	2.0	1.732	Phon/Phon_run-01/PC021.wav	2.0	0	1.482
77.145	4.496	P_C	1.0	n/a	n/a	1.0	1.6019999999999999	Phon/Phon_run-01/ContS29.wav	1.0	1	2.3520000000000003
81.649	3.3680000000000003	P_R	1.0	n/a	n/a	1.0	1.337	Phon/Phon_run-01/stereo_PR25.wav	1.0	1	1.087
85.01799999999999	3.95	P_O	1.0	n/a	n/a	n/a	n/a	Phon/Phon_run-01/PC012.wav	n/a	0	n/a
88.971	3.95	P_U	2.0	n/a	n/a	2.0	2.414	Phon/Phon_run-01/PM003.wav	2.0	1	2.164
92.92399999999999	3.939	P_O	1.0	n/a	n/a	1.0	2.6	Phon/Phon_run-01/PC004.wav	1.0	1	2.35
96.87799999999999	3.59	P_C	1.0	n/a	n/a	1.0	2.342	Phon/Phon_run-01/ContS27.wav	1.0	1	3.092
100.48100000000001	4.296	P_U	2.0	n/a	n/a	1.0	1.685	Phon/Phon_run-01/stereo_PU21.wav	1.0	0	1.435
104.78399999999999	3.862	P_R	1.0	n/a	n/a	n/a	n/a	Phon/Phon_run-01/stereo_PR26.wav	n/a	0	n/a
108.654	3.95	P_O	1.0	n/a	n/a	n/a	n/a	Phon/Phon_run-01/PC026.wav	n/a	0	n/a
112.60700000000001	3.5	P_O	1.0	n/a	n/a	2.0	1.974	Phon/Phon_run-01/PC025.wav	2.0	0	1.724
116.11	4.013	P_C	1.0	n/a	n/a	1.0	0.255	Phon/Phon_run-01/ContS23.wav	1.0	1	1.005
120.13	3.792	P_R	1.0	n/a	n/a	1.0	1.5530000000000002	Phon/Phon_run-01/stereo_PR18.wav	1.0	1	1.3030000000000002
123.93299999999999	3.346	P_U	2.0	n/a	n/a	n/a	n/a	Phon/Phon_run-01/stereo_PU19.wav	2.0	1	2.759
127.286	3.891	P_R	1.0	2.0	0.413	1.0	2.1590000000000003	Phon/Phon_run-01/stereo_PR03.wav	1.0	1	1.9090000000000003
131.189	3.355	P_O	1.0	n/a	n/a	1.0	1.71	Phon/Phon_run-01/PC003.wav	1.0	1	1.46
134.558	3.951	P_C	1.0	n/a	n/a	1.0	0.736	Phon/Phon_run-01/ContS15.wav	1.0	1	1.486
138.511	3.74	P_U	2.0	n/a	n/a	n/a	n/a	Phon/Phon_run-01/stereo_PU16.wav	2.0	1	2.8040000000000003
142.264	3.95	P_R	1.0	2.0	0.064	1.0	1.521	Phon/Phon_run-01/stereo_PR10.wav	1.0	1	1.271
146.217	3.464	P_C	1.0	n/a	n/a	1.0	0.39899999999999997	Phon/Phon_run-01/ContS09.wav	1.0	1	1.149
149.687	4.275	P_R	1.0	n/a	n/a	2.0	2.066	Phon/Phon_run-01/stereo_PR04.wav	2.0	0	1.8159999999999998
153.974	3.95	P_U	2.0	n/a	n/a	2.0	1.358	Phon/Phon_run-01/PM023.wav	2.0	1	1.108
157.92700000000005	4.4	P_U	2.0	n/a	n/a	1.0	2.408	Phon/Phon_run-01/PM001.wav	1.0	0	2.158
162.33	3.665	P_C	1.0	n/a	n/a	n/a	n/a	Phon/Phon_run-01/ContS35.wav	n/a	0	n/a
166.0	3.463	P_O	1.0	n/a	n/a	n/a	n/a	Phon/Phon_run-01/PC017.wav	2.0	0	2.761
169.47	4.332	P_R	1.0	2.0	0.298	1.0	1.936	Phon/Phon_run-01/stereo_PR19.wav	1.0	1	1.686
173.80599999999995	4.083	P_C	1.0	n/a	n/a	1.0	0.657	Phon/Phon_run-01/ContS33.wav	1.0	1	1.407
177.893	3.5	P_R	1.0	n/a	n/a	1.0	2.173	Phon/Phon_run-01/stereo_PR17.wav	1.0	1	1.923
181.396	4.2669999999999995	P_U	2.0	n/a	n/a	2.0	1.855	Phon/Phon_run-01/PM009.wav	2.0	1	1.605
185.666	3.4389999999999996	P_R	1.0	n/a	n/a	1.0	1.196	Phon/Phon_run-01/stereo_PR09.wav	1.0	1	0.946
