onset	duration	trial_type	correct	window1_response	window1_RT	window2_response	window2_RT	stim_file	calculated_response	calculated_accuracy	calculated_RT
1.084	4.2	S_U	2.0	n/a	n/a	2.0	2.246	Sem/Sem_run-01/stereo_1SU41A0.wav	2.0	1	1.996
5.2879999999999985	3.596	S_C	1.0	n/a	n/a	1.0	0.64	Sem/Sem_run-01/ContS29.wav	1.0	1	1.3900000000000001
8.89	3.425	S_U	2.0	n/a	n/a	2.0	2.0269999999999997	Sem/Sem_run-01/stereo_2SU87A0.wav	2.0	1	1.7770000000000001
12.325999999999999	3.933	S_H	1.0	n/a	n/a	1.0	1.4909999999999999	Sem/Sem_run-01/stereo_1SH13A0.wav	1.0	1	1.241
16.262999999999998	4.323	S_H	1.0	n/a	n/a	1.0	1.172	Sem/Sem_run-01/stereo_1SH05A0.wav	1.0	1	0.9219999999999999
20.599	4.073	S_C	1.0	n/a	n/a	1.0	0.445	Sem/Sem_run-01/ContS31.wav	1.0	1	1.195
24.686	3.869	S_L	1.0	n/a	n/a	2.0	2.524	Sem/Sem_run-01/stereo_2SL63A0.wav	2.0	0	2.274
28.555	3.75	S_L	1.0	n/a	n/a	2.0	1.6369999999999998	Sem/Sem_run-01/stereo_1SL29A0.wav	2.0	0	1.3869999999999998
32.308	4.3660000000000005	S_U	2.0	n/a	n/a	2.0	2.0269999999999997	Sem/Sem_run-01/stereo_2SU78A0.wav	2.0	1	1.7770000000000001
36.678000000000004	3.3	S_L	1.0	n/a	n/a	1.0	2.124	Sem/Sem_run-01/stereo_1SL17A0.wav	1.0	1	1.874
39.981	3.884	S_C	1.0	n/a	n/a	1.0	0.608	Sem/Sem_run-01/ContS05.wav	1.0	1	1.358
43.867	4.371	S_H	1.0	n/a	n/a	n/a	n/a	Sem/Sem_run-01/stereo_2SH58A0.wav	2.0	0	3.415
48.254	4.329	S_L	1.0	2.0	0.044000000000000004	1.0	2.9530000000000003	Sem/Sem_run-01/stereo_2SL72A0.wav	1.0	1	2.7030000000000003
52.59	3.94	S_H	1.0	n/a	n/a	1.0	1.864	Sem/Sem_run-01/stereo_2SH57A0.wav	1.0	1	1.614
56.543	4.2	S_U	2.0	n/a	n/a	2.0	1.2429999999999999	Sem/Sem_run-01/stereo_2SU83A0.wav	2.0	1	0.9930000000000001
60.747	3.474	S_C	1.0	n/a	n/a	1.0	0.239	Sem/Sem_run-01/ContS11.wav	1.0	1	0.989
64.233	4.271	S_L	1.0	n/a	n/a	1.0	2.575	Sem/Sem_run-01/stereo_1SL26A0.wav	1.0	1	2.325
68.51899999999999	3.91	S_L	1.0	n/a	n/a	1.0	1.238	Sem/Sem_run-01/stereo_1SL25A0.wav	1.0	1	0.988
72.439	4.479	S_C	1.0	n/a	n/a	2.0	1.367	Sem/Sem_run-01/ContS25.wav	2.0	0	2.117
76.926	3.378	S_U	2.0	n/a	n/a	n/a	n/a	Sem/Sem_run-01/stereo_2SU81A0.wav	1.0	0	2.685
80.312	3.42	S_L	1.0	1.0	0.307	n/a	n/a	Sem/Sem_run-01/stereo_1SL27A0.wav	n/a	0	n/a
83.74799999999998	4.3439999999999985	S_L	1.0	n/a	n/a	1.0	2.033	Sem/Sem_run-01/stereo_1SL30A0.wav	1.0	1	1.783
88.101	3.909	S_L	1.0	n/a	n/a	1.0	1.597	Sem/Sem_run-01/stereo_2SL71A0.wav	1.0	1	1.347
92.021	3.867	S_H	1.0	1.0	0.51	n/a	n/a	Sem/Sem_run-01/stereo_1SH04A0.wav	n/a	0	n/a
95.89	3.828	S_U	2.0	n/a	n/a	2.0	2.008	Sem/Sem_run-01/stereo_1SU37A0.wav	2.0	1	1.758
99.726	4.565	S_C	1.0	n/a	n/a	1.0	0.457	Sem/Sem_run-01/ContS35.wav	1.0	1	1.207
104.29700000000001	3.3	S_U	2.0	n/a	n/a	2.0	1.476	Sem/Sem_run-01/stereo_1SU35A0.wav	2.0	1	1.226
107.59899999999999	3.477	S_L	1.0	n/a	n/a	2.0	1.874	Sem/Sem_run-01/stereo_2SL65A0.wav	2.0	0	1.624
111.085	3.83	S_H	1.0	n/a	n/a	1.0	1.0979999999999999	Sem/Sem_run-01/stereo_1SH07A0.wav	1.0	1	0.8480000000000001
114.921	4.3439999999999985	S_C	1.0	n/a	n/a	1.0	0.15	Sem/Sem_run-01/ContS07.wav	1.0	1	0.9
119.275	3.5	S_H	1.0	n/a	n/a	n/a	n/a	Sem/Sem_run-01/stereo_1SH03A0.wav	n/a	0	n/a
122.777	3.919	S_U	2.0	n/a	n/a	2.0	1.8880000000000001	Sem/Sem_run-01/stereo_1SU45A0.wav	2.0	1	1.638
126.697	3.5	S_H	1.0	n/a	n/a	1.0	1.861	Sem/Sem_run-01/stereo_1SH06A0.wav	1.0	1	1.611
130.2	3.392	S_L	1.0	n/a	n/a	n/a	n/a	Sem/Sem_run-01/stereo_2SL62A0.wav	n/a	0	n/a
133.602	3.54	S_C	1.0	n/a	n/a	1.0	0.8109999999999999	Sem/Sem_run-01/ContS19.wav	1.0	1	1.561
137.155	4.4	S_H	1.0	n/a	n/a	1.0	1.673	Sem/Sem_run-01/stereo_1SH15A0.wav	1.0	1	1.423
141.558	3.342	S_H	1.0	n/a	n/a	n/a	n/a	Sem/Sem_run-01/stereo_1SH11A0.wav	n/a	0	n/a
144.911	3.385	S_U	2.0	n/a	n/a	2.0	2.126	Sem/Sem_run-01/stereo_1SU44A0.wav	2.0	1	1.876
148.297	3.4160000000000004	S_H	1.0	n/a	n/a	1.0	1.246	Sem/Sem_run-01/stereo_2SH56A0.wav	1.0	1	0.996
151.716	3.849	S_U	2.0	n/a	n/a	2.0	1.73	Sem/Sem_run-01/stereo_2SU82A0.wav	2.0	1	1.48
155.569	3.934	S_C	1.0	n/a	n/a	1.0	0.413	Sem/Sem_run-01/ContS13.wav	1.0	1	1.163
159.505	4.309	S_L	1.0	n/a	n/a	1.0	1.725	Sem/Sem_run-01/stereo_2SL64A0.wav	1.0	1	1.475
163.825	4.413	S_C	1.0	n/a	n/a	1.0	0.36	Sem/Sem_run-01/ContS17.wav	1.0	1	1.1099999999999999
168.245	4.2	S_U	2.0	n/a	n/a	n/a	n/a	Sem/Sem_run-01/stereo_2SU90A0.wav	1.0	0	3.697
172.449	3.846	S_U	2.0	1.0	0.49700000000000005	n/a	n/a	Sem/Sem_run-01/stereo_2SU88A0.wav	n/a	0	n/a
176.30200000000005	3.3939999999999997	S_C	1.0	n/a	n/a	1.0	0.945	Sem/Sem_run-01/ContS01.wav	1.0	1	1.6949999999999998
179.704	4.013	S_C	1.0	n/a	n/a	1.0	0.7070000000000001	Sem/Sem_run-01/ContS23.wav	1.0	1	1.457
183.72400000000002	4.227	S_H	1.0	n/a	n/a	n/a	n/a	Sem/Sem_run-01/stereo_1SH08A0.wav	n/a	0	n/a
