onset	duration	trial_type	correct	window1_response	window1_RT	window2_response	window2_RT	stim_file	calculated_response	calculated_accuracy	calculated_RT
1.0924	3.5	P_R	1.0	n/a	n/a	1.0	1.714	Phon/Phon_run-02/stereo_PR20.wav	1.0	1	1.464
4.595	4.235	P_O	1.0	n/a	n/a	1.0	1.883	Phon/Phon_run-02/PC034.wav	1.0	1	1.633
8.8325	3.375	P_R	1.0	n/a	n/a	1.0	1.666	Phon/Phon_run-02/stereo_PR13.wav	1.0	1	1.416
12.2183	3.474	P_C	1.0	n/a	n/a	1.0	0.161	Phon/Phon_run-02/ContS12.wav	1.0	1	0.911
15.7041	3.875	P_U	2.0	n/a	n/a	2.0	1.82	Phon/Phon_run-02/PM025.wav	2.0	1	1.57
19.5903	3.726	P_R	1.0	n/a	n/a	2.0	1.794	Phon/Phon_run-02/stereo_PR22.wav	2.0	0	1.544
23.3263	3.451	P_O	1.0	n/a	n/a	1.0	1.217	Phon/Phon_run-02/PC014.wav	1.0	1	0.9670000000000001
26.7799	3.779	P_C	1.0	n/a	n/a	1.0	0.154	Phon/Phon_run-02/ContS02.wav	1.0	1	0.904
30.566	3.821	P_U	2.0	n/a	n/a	1.0	2.088	Phon/Phon_run-02/stereo_PU18.wav	1.0	0	1.838
34.402	3.49	P_U	2.0	n/a	n/a	2.0	1.4280000000000002	Phon/Phon_run-02/stereo_PU12.wav	2.0	1	1.1780000000000002
37.9046	4.38	P_C	1.0	n/a	n/a	1.0	0.267	Phon/Phon_run-02/ContS32.wav	1.0	1	1.017
42.291000000000004	4.0969999999999995	P_R	1.0	n/a	n/a	2.0	2.081	Phon/Phon_run-02/stereo_PR16.wav	2.0	0	1.831
46.394	3.5	P_O	1.0	n/a	n/a	1.0	2.1319999999999997	Phon/Phon_run-02/PC022.wav	1.0	1	1.8820000000000001
49.8966	4.0760000000000005	P_R	1.0	n/a	n/a	1.0	1.393	Phon/Phon_run-02/stereo_PR08.wav	1.0	1	1.143
53.983000000000004	3.5	P_O	1.0	n/a	n/a	1.0	1.548	Phon/Phon_run-02/PC028.wav	1.0	1	1.298
57.4856	3.5	P_U	2.0	n/a	n/a	1.0	1.432	Phon/Phon_run-02/stereo_PU27.wav	1.0	0	1.182
60.9881	3.819	P_C	1.0	n/a	n/a	1.0	0.22399999999999998	Phon/Phon_run-02/ContS06.wav	1.0	1	0.974
64.8086	4.25	P_O	1.0	n/a	n/a	1.0	1.4280000000000002	Phon/Phon_run-02/PC031.wav	1.0	1	1.1780000000000002
69.062	3.662	P_C	1.0	n/a	n/a	1.0	0.28800000000000003	Phon/Phon_run-02/ContS36.wav	1.0	1	1.038
72.7312	3.823	P_O	1.0	n/a	n/a	1.0	1.5959999999999999	Phon/Phon_run-02/PC023.wav	1.0	1	1.346
76.5674	4.323	P_C	1.0	n/a	n/a	2.0	0.08199999999999999	Phon/Phon_run-02/ContS24.wav	2.0	0	0.832
80.9038	3.865	P_U	2.0	n/a	n/a	2.0	1.807	Phon/Phon_run-02/PM004.wav	2.0	1	1.557
84.7733	3.875	P_O	1.0	n/a	n/a	1.0	1.579	Phon/Phon_run-02/PC007.wav	1.0	1	1.329
88.6594	4.25	P_U	2.0	n/a	n/a	1.0	1.337	Phon/Phon_run-02/PM011.wav	1.0	0	1.087
92.9126	4.362	P_C	1.0	1.0	0.611	n/a	n/a	Phon/Phon_run-02/ContS30.wav	1.0	1	0.611
97.2825	3.875	P_O	1.0	n/a	n/a	1.0	1.754	Phon/Phon_run-02/PC030.wav	1.0	1	1.504
101.1687	3.3360000000000003	P_R	1.0	n/a	n/a	1.0	1.253	Phon/Phon_run-02/stereo_PR05.wav	1.0	1	1.003
104.5077	4.113	P_U	2.0	n/a	n/a	2.0	2.037	Phon/Phon_run-02/stereo_PU01.wav	2.0	1	1.787
108.6273	4.1739999999999995	P_U	2.0	n/a	n/a	2.0	1.531	Phon/Phon_run-02/PM029.wav	2.0	1	1.281
112.8137	3.4539999999999997	P_C	1.0	n/a	n/a	1.0	0.01	Phon/Phon_run-02/ContS08.wav	1.0	1	0.76
116.2828	3.446	P_R	1.0	n/a	n/a	1.0	1.415	Phon/Phon_run-02/stereo_PR30.wav	1.0	1	1.165
119.7352	3.85	P_R	1.0	n/a	n/a	1.0	1.235	Phon/Phon_run-02/stereo_PR07.wav	1.0	1	0.9850000000000001
123.588	3.438	P_U	2.0	n/a	n/a	2.0	1.561	Phon/Phon_run-02/stereo_PU02.wav	2.0	1	1.311
127.0406	3.915	P_C	1.0	n/a	n/a	1.0	0.043	Phon/Phon_run-02/ContS20.wav	1.0	1	0.793
130.9601	3.487	P_U	2.0	n/a	n/a	2.0	1.733	Phon/Phon_run-02/PM021.wav	2.0	1	1.483
134.46200000000002	3.965	P_C	1.0	n/a	n/a	1.0	0.114	Phon/Phon_run-02/ContS26.wav	1.0	1	0.864
138.4315	3.792	P_R	1.0	n/a	n/a	1.0	1.354	Phon/Phon_run-02/stereo_PR31.wav	1.0	1	1.104
142.2343	4.135	P_O	1.0	n/a	n/a	1.0	1.9340000000000002	Phon/Phon_run-02/PC024.wav	1.0	1	1.684
146.3717	3.875	P_U	2.0	n/a	n/a	2.0	1.705	Phon/Phon_run-02/PM010.wav	2.0	1	1.455
150.2579	3.875	P_O	1.0	n/a	n/a	1.0	2.112	Phon/Phon_run-02/PC015.wav	1.0	1	1.862
154.144	4.245	P_C	1.0	1.0	0.703	n/a	n/a	Phon/Phon_run-02/ContS14.wav	1.0	1	0.703
158.3971	3.854	P_R	1.0	n/a	n/a	1.0	1.6680000000000001	Phon/Phon_run-02/stereo_PR14.wav	1.0	1	1.418
162.2662	4.239	P_O	1.0	n/a	n/a	2.0	2.379	Phon/Phon_run-02/PC008.wav	2.0	0	2.129
166.5192	4.25	P_U	2.0	n/a	n/a	2.0	2.314	Phon/Phon_run-02/stereo_PU11.wav	2.0	1	2.064
170.7726	3.523	P_C	1.0	n/a	n/a	1.0	0.038	Phon/Phon_run-02/ContS18.wav	1.0	1	0.788
174.3085	3.429	P_O	1.0	n/a	n/a	1.0	2.088	Phon/Phon_run-02/PC006.wav	1.0	1	1.838
177.7443	4.18	P_R	1.0	n/a	n/a	1.0	1.732	Phon/Phon_run-02/stereo_PR32.wav	1.0	1	1.482
181.9307	4.104	P_R	1.0	n/a	n/a	1.0	1.159	Phon/Phon_run-02/stereo_PR24.wav	1.0	1	0.909
