onset	duration	trial_type	correct	window1_response	window1_RT	window2_response	window2_RT	stim_file	calculated_response	calculated_accuracy	calculated_RT
1.0964	7.034	SP_W	1.0	n/a	n/a	1.0	5.158	Plaus/Plaus_run-01/stereo_PW85.wav	1.0	1	3.0109999999999992
8.1359	5.641	SP_I	2.0	n/a	n/a	2.0	2.44	Plaus/Plaus_run-01/stereo_PI11.wav	2.0	1	1.5199999999999998
13.79	6.77	SP_C	1.0	n/a	n/a	1.0	0.363	Plaus/Plaus_run-01/CoM08b.wav	1.0	1	1.113
20.5628	7.327000000000001	SP_W	1.0	n/a	n/a	1.0	3.571	Plaus/Plaus_run-01/stereo_PW72.wav	1.0	1	1.5910000000000002
27.9014	6.145	SP_C	1.0	n/a	n/a	1.0	0.097	Plaus/Plaus_run-01/CoM05d.wav	1.0	1	0.847
34.0559	5.181	SP_I	2.0	n/a	n/a	2.0	3.324	Plaus/Plaus_run-01/stereo_PI65.wav	2.0	1	2.382
39.243	5.092	SP_S	1.0	n/a	n/a	1.0	3.012	Plaus/Plaus_run-01/stereo_PC13.wav	1.0	1	1.949
44.3468	7.355	SP_C	1.0	n/a	n/a	1.0	0.371	Plaus/Plaus_run-01/CoM06l.wav	1.0	1	1.121
51.7032	7.47	SP_I	2.0	n/a	n/a	2.0	3.903	Plaus/Plaus_run-01/stereo_PI90.wav	2.0	1	1.7320000000000002
59.1764	7.399	SP_S	1.0	n/a	n/a	1.0	3.856	Plaus/Plaus_run-01/stereo_PC35.wav	1.0	1	1.5890000000000004
66.5818	5.685	SP_S	1.0	n/a	n/a	1.0	2.727	Plaus/Plaus_run-01/stereo_PC47.wav	1.0	1	1.7179999999999995
72.2704	5.669	SP_W	1.0	n/a	n/a	2.0	2.438	Plaus/Plaus_run-01/stereo_PW19.wav	2.0	0	1.4320000000000002
77.9423	7.9	SP_C	1.0	n/a	n/a	1.0	0.129	Plaus/Plaus_run-01/CoM03l.wav	1.0	1	0.879
85.8483	5.145	SP_I	2.0	n/a	n/a	2.0	2.807	Plaus/Plaus_run-01/stereo_PI09.wav	2.0	1	1.7990000000000002
91.0021	6.9170000000000025	SP_W	1.0	n/a	n/a	1.0	3.408	Plaus/Plaus_run-01/stereo_PW30.wav	1.0	1	1.2879999999999998
97.9243	5.738	SP_S	1.0	n/a	n/a	1.0	2.326	Plaus/Plaus_run-01/stereo_PC14.wav	1.0	1	1.155
103.6662	6.276	SP_W	1.0	n/a	n/a	1.0	3.788	Plaus/Plaus_run-01/stereo_PW50.wav	1.0	1	2.966
109.954	5.49	SP_C	1.0	n/a	n/a	1.0	0.104	Plaus/Plaus_run-01/CoM03d.wav	1.0	1	0.8540000000000001
115.458	5.7	SP_I	2.0	n/a	n/a	2.0	2.83	Plaus/Plaus_run-01/stereo_PI67.wav	2.0	1	1.939
121.1625	7.237	SP_S	1.0	n/a	n/a	1.0	3.53	Plaus/Plaus_run-01/stereo_PC68.wav	1.0	1	1.5639999999999996
128.4022	6.49	SP_C	1.0	n/a	n/a	1.0	0.443	Plaus/Plaus_run-01/CoM03b.wav	1.0	1	1.193
134.9065	6.25	SP_W	1.0	n/a	n/a	1.0	2.72	Plaus/Plaus_run-01/stereo_PW61.wav	1.0	1	1.7400000000000002
141.161	6.952999999999999	SP_I	2.0	n/a	n/a	2.0	3.695	Plaus/Plaus_run-01/stereo_PI32.wav	2.0	1	1.5299999999999998
148.1173	7.085	SP_C	1.0	n/a	n/a	1.0	0.131	Plaus/Plaus_run-01/CoM02e.wav	1.0	1	0.8809999999999999
155.2068	6.3610000000000015	SP_S	1.0	n/a	n/a	1.0	3.898	Plaus/Plaus_run-01/stereo_PC24.wav	1.0	1	1.64
161.5781	5.1110000000000015	SP_W	1.0	n/a	n/a	1.0	2.884	Plaus/Plaus_run-01/stereo_PW53.wav	1.0	1	1.87
166.6985	6.2860000000000005	SP_I	2.0	2.0	0.096	2.0	3.913	Plaus/Plaus_run-01/stereo_PI42.wav	2.0	1	1.7170000000000003
172.9876	6.577000000000001	SP_S	1.0	n/a	n/a	1.0	3.395	Plaus/Plaus_run-01/stereo_PC57.wav	1.0	1	2.2
179.5757	5.273	SP_W	1.0	n/a	n/a	1.0	2.802	Plaus/Plaus_run-01/stereo_PW18.wav	1.0	1	1.635
184.8629	5.77	SP_C	1.0	n/a	n/a	1.0	0.386	Plaus/Plaus_run-01/CoM09b.wav	1.0	1	1.136
190.6348	6.731	SP_S	1.0	n/a	n/a	1.0	3.264	Plaus/Plaus_run-01/stereo_PC26.wav	1.0	1	1.1639999999999997
197.3731	7.212999999999999	SP_I	2.0	n/a	n/a	2.0	3.6	Plaus/Plaus_run-01/stereo_PI33.wav	2.0	1	1.617
204.595	5.181	SP_S	1.0	n/a	n/a	1.0	2.274	Plaus/Plaus_run-01/stereo_PC01.wav	1.0	1	1.3330000000000002
209.7821	6.238	SP_S	1.0	n/a	n/a	1.0	4.085	Plaus/Plaus_run-01/stereo_PC36.wav	1.0	1	2.039
216.0211	7.73	SP_C	1.0	n/a	n/a	1.0	0.457	Plaus/Plaus_run-01/CoM10e.wav	1.0	1	1.207
223.7601	6.843	SP_I	2.0	n/a	n/a	2.0	3.813	Plaus/Plaus_run-01/stereo_PI45.wav	2.0	1	1.6860000000000004
230.615	6.101	SP_W	1.0	n/a	n/a	2.0	4.159	Plaus/Plaus_run-01/stereo_PW28.wav	2.0	0	2.2269999999999994
236.7206	7.419	SP_W	1.0	n/a	n/a	1.0	4.11	Plaus/Plaus_run-01/stereo_PW86.wav	1.0	1	2.0740000000000007
244.1438	6.54	SP_C	1.0	n/a	n/a	1.0	0.181	Plaus/Plaus_run-01/CoM05e.wav	1.0	1	0.9309999999999999
250.6981	6.247000000000001	SP_I	2.0	n/a	n/a	2.0	2.707	Plaus/Plaus_run-01/stereo_PI12.wav	2.0	1	1.836
