onset	duration	trial_type	correct	window1_response	window1_RT	window2_response	window2_RT	stim_file	calculated_response	calculated_accuracy	calculated_RT
1.084	4.2	S_U	2.0	n/a	n/a	2.0	1.848	Sem/Sem_run-01/stereo_1SU41A0.wav	2.0	1	1.598
5.287000000000001	3.596	S_C	1.0	n/a	n/a	1.0	0.461	Sem/Sem_run-01/ContS29.wav	1.0	1	1.211
8.89	3.425	S_U	2.0	n/a	n/a	2.0	1.546	Sem/Sem_run-01/stereo_2SU87A0.wav	2.0	1	1.296
12.325999999999999	3.933	S_H	1.0	n/a	n/a	1.0	1.385	Sem/Sem_run-01/stereo_1SH13A0.wav	1.0	1	1.135
16.262	4.323	S_H	1.0	n/a	n/a	1.0	1.051	Sem/Sem_run-01/stereo_1SH05A0.wav	1.0	1	0.8009999999999999
20.599	4.073	S_C	1.0	n/a	n/a	1.0	0.5589999999999999	Sem/Sem_run-01/ContS31.wav	1.0	1	1.309
24.685	3.869	S_L	1.0	n/a	n/a	1.0	1.775	Sem/Sem_run-01/stereo_2SL63A0.wav	1.0	1	1.525
28.555	3.75	S_L	1.0	n/a	n/a	1.0	1.389	Sem/Sem_run-01/stereo_1SL29A0.wav	1.0	1	1.139
32.308	4.3660000000000005	S_U	2.0	n/a	n/a	2.0	1.463	Sem/Sem_run-01/stereo_2SU78A0.wav	2.0	1	1.213
36.678000000000004	3.3	S_L	1.0	n/a	n/a	1.0	1.806	Sem/Sem_run-01/stereo_1SL17A0.wav	1.0	1	1.556
39.98	3.884	S_C	1.0	n/a	n/a	1.0	1.172	Sem/Sem_run-01/ContS05.wav	1.0	1	1.922
43.867	4.371	S_H	1.0	n/a	n/a	1.0	1.679	Sem/Sem_run-01/stereo_2SH58A0.wav	1.0	1	1.429
48.253	4.329	S_L	1.0	n/a	n/a	1.0	1.714	Sem/Sem_run-01/stereo_2SL72A0.wav	1.0	1	1.464
52.59	3.94	S_H	1.0	n/a	n/a	1.0	1.379	Sem/Sem_run-01/stereo_2SH57A0.wav	1.0	1	1.129
56.543	4.2	S_U	2.0	n/a	n/a	2.0	2.011	Sem/Sem_run-01/stereo_2SU83A0.wav	2.0	1	1.7610000000000001
60.746	3.474	S_C	1.0	n/a	n/a	1.0	1.443	Sem/Sem_run-01/ContS11.wav	1.0	1	2.193
64.232	4.271	S_L	1.0	n/a	n/a	1.0	1.916	Sem/Sem_run-01/stereo_1SL26A0.wav	1.0	1	1.666
68.51899999999999	3.91	S_L	1.0	n/a	n/a	1.0	1.3459999999999999	Sem/Sem_run-01/stereo_1SL25A0.wav	1.0	1	1.096
72.439	4.479	S_C	1.0	n/a	n/a	1.0	0.929	Sem/Sem_run-01/ContS25.wav	1.0	1	1.679
76.925	3.378	S_U	2.0	n/a	n/a	2.0	2.125	Sem/Sem_run-01/stereo_2SU81A0.wav	2.0	1	1.875
80.311	3.42	S_L	1.0	n/a	n/a	1.0	2.234	Sem/Sem_run-01/stereo_1SL27A0.wav	1.0	1	1.984
83.73100000000002	4.3439999999999985	S_L	1.0	n/a	n/a	1.0	2.455	Sem/Sem_run-01/stereo_1SL30A0.wav	1.0	1	2.205
88.084	3.909	S_L	1.0	n/a	n/a	1.0	1.574	Sem/Sem_run-01/stereo_2SL71A0.wav	1.0	1	1.324
92.00399999999999	3.867	S_H	1.0	n/a	n/a	1.0	1.079	Sem/Sem_run-01/stereo_1SH04A0.wav	1.0	1	0.829
95.87299999999999	3.828	S_U	2.0	n/a	n/a	2.0	2.5989999999999998	Sem/Sem_run-01/stereo_1SU37A0.wav	2.0	1	2.349
99.71	4.565	S_C	1.0	n/a	n/a	1.0	0.647	Sem/Sem_run-01/ContS35.wav	1.0	1	1.397
104.28	3.3	S_U	2.0	n/a	n/a	2.0	1.208	Sem/Sem_run-01/stereo_1SU35A0.wav	2.0	1	0.958
107.58200000000001	3.477	S_L	1.0	n/a	n/a	1.0	1.4180000000000001	Sem/Sem_run-01/stereo_2SL65A0.wav	1.0	1	1.168
111.068	3.83	S_H	1.0	n/a	n/a	1.0	1.886	Sem/Sem_run-01/stereo_1SH07A0.wav	1.0	1	1.636
114.905	4.3439999999999985	S_C	1.0	n/a	n/a	1.0	1.4609999999999999	Sem/Sem_run-01/ContS07.wav	1.0	1	2.2110000000000003
119.258	3.5	S_H	1.0	n/a	n/a	1.0	1.75	Sem/Sem_run-01/stereo_1SH03A0.wav	1.0	1	1.5
122.76100000000001	3.919	S_U	2.0	n/a	n/a	2.0	1.619	Sem/Sem_run-01/stereo_1SU45A0.wav	2.0	1	1.369
126.68	3.5	S_H	1.0	n/a	n/a	1.0	1.2229999999999999	Sem/Sem_run-01/stereo_1SH06A0.wav	1.0	1	0.9730000000000001
130.183	3.392	S_L	1.0	n/a	n/a	1.0	1.524	Sem/Sem_run-01/stereo_2SL62A0.wav	1.0	1	1.274
133.586	3.54	S_C	1.0	n/a	n/a	1.0	1.278	Sem/Sem_run-01/ContS19.wav	1.0	1	2.028
137.138	4.4	S_H	1.0	n/a	n/a	1.0	1.567	Sem/Sem_run-01/stereo_1SH15A0.wav	1.0	1	1.317
141.542	3.342	S_H	1.0	n/a	n/a	1.0	1.52	Sem/Sem_run-01/stereo_1SH11A0.wav	1.0	1	1.27
144.894	3.385	S_U	2.0	n/a	n/a	n/a	n/a	Sem/Sem_run-01/stereo_1SU44A0.wav	n/a	0	n/a
148.28	3.4160000000000004	S_H	1.0	n/a	n/a	1.0	1.685	Sem/Sem_run-01/stereo_2SH56A0.wav	1.0	1	1.435
151.69899999999996	3.849	S_U	2.0	n/a	n/a	2.0	1.615	Sem/Sem_run-01/stereo_2SU82A0.wav	2.0	1	1.365
155.55200000000005	3.934	S_C	1.0	n/a	n/a	1.0	0.642	Sem/Sem_run-01/ContS13.wav	1.0	1	1.392
159.489	4.309	S_L	1.0	n/a	n/a	2.0	2.67	Sem/Sem_run-01/stereo_2SL64A0.wav	2.0	0	2.42
163.809	4.413	S_C	1.0	n/a	n/a	1.0	0.924	Sem/Sem_run-01/ContS17.wav	1.0	1	1.674
168.229	4.2	S_U	2.0	n/a	n/a	2.0	2.4019999999999997	Sem/Sem_run-01/stereo_2SU90A0.wav	2.0	1	2.152
172.43200000000004	3.846	S_U	2.0	n/a	n/a	n/a	n/a	Sem/Sem_run-01/stereo_2SU88A0.wav	n/a	0	n/a
176.285	3.3939999999999997	S_C	1.0	n/a	n/a	1.0	0.239	Sem/Sem_run-01/ContS01.wav	1.0	1	0.989
179.688	4.013	S_C	1.0	n/a	n/a	1.0	0.36700000000000005	Sem/Sem_run-01/ContS23.wav	1.0	1	1.117
183.707	4.227	S_H	1.0	n/a	n/a	1.0	1.713	Sem/Sem_run-01/stereo_1SH08A0.wav	1.0	1	1.463
