onset	duration	trial_type	correct	window1_response	window1_RT	window2_response	window2_RT	stim_file	calculated_response	calculated_accuracy	calculated_RT
1.0915	6.895	G_F	2.0	n/a	n/a	2.0	2.783	Gram/Gram_run-01/stereo_2MF57U2.wav	2.0	1	3.533
7.9964	7.175	G_F	2.0	n/a	n/a	2.0	2.591	Gram/Gram_run-01/stereo_1MF15U3.wav	2.0	1	3.341
15.1851	6.5070000000000014	G_G	1.0	n/a	n/a	1.0	3.571	Gram/Gram_run-01/stereo_1MF11G2.wav	1.0	1	2.391
21.7065	6.505	G_C	1.0	n/a	n/a	1.0	0.521	Gram/Gram_run-01/CoM09d.wav	1.0	1	1.271
28.2123	6.9479999999999995	G_F	2.0	n/a	n/a	1.0	4.293	Gram/Gram_run-01/stereo_2MF68U4.wav	1.0	0	3.567
35.1675	5.541	G_P	2.0	n/a	n/a	2.0	2.997	Gram/Gram_run-01/stereo_1MP37U3.wav	2.0	1	1.9619999999999997
40.7217	5.9479999999999995	G_G	1.0	n/a	n/a	1.0	4.718999999999999	Gram/Gram_run-01/stereo_2MF50G1.wav	1.0	1	2.6239999999999988
46.6761	6.013	G_F	2.0	n/a	n/a	2.0	3.687	Gram/Gram_run-01/stereo_1MF05U1.wav	2.0	1	3.085
52.6972	7.87	G_C	1.0	n/a	n/a	1.0	1.761	Gram/Gram_run-01/CoM01l.wav	1.0	1	2.511
60.5705	6.4979999999999976	G_G	1.0	n/a	n/a	1.0	4.018	Gram/Gram_run-01/stereo_1MF23G4.wav	1.0	1	1.8369999999999997
67.0753	6.184	G_F	2.0	n/a	n/a	1.0	3.653	Gram/Gram_run-01/stereo_2MF55U2.wav	1.0	0	4.4030000000000005
73.264	6.83	G_C	1.0	n/a	n/a	1.0	0.606	Gram/Gram_run-01/CoM10l.wav	1.0	1	1.3559999999999999
80.1023	7.505	G_G	1.0	n/a	n/a	1.0	4.412	Gram/Gram_run-01/stereo_2MP96G4.wav	1.0	1	2.0170000000000003
87.6086	7.1370000000000005	G_G	1.0	n/a	n/a	1.0	4.827	Gram/Gram_run-01/stereo_1MP47G4.wav	1.0	1	2.3600000000000003
94.74799999999999	6.694	G_F	2.0	n/a	n/a	n/a	n/a	Gram/Gram_run-01/stereo_2MF61U3.wav	n/a	0	n/a
101.4529	5.39	G_C	1.0	n/a	n/a	1.0	0.662	Gram/Gram_run-01/CoM01d.wav	1.0	1	1.412
106.8569	6.5760000000000005	G_G	1.0	n/a	n/a	2.0	4.371	Gram/Gram_run-01/stereo_1MP35G2.wav	2.0	0	3.3670000000000004
113.4451	5.3389999999999995	G_F	2.0	n/a	n/a	1.0	3.969	Gram/Gram_run-01/stereo_2MF69U4.wav	1.0	0	3.2310000000000003
118.7989	7.94	G_C	1.0	n/a	n/a	1.0	1.581	Gram/Gram_run-01/CoM08l.wav	1.0	1	2.331
126.7476	6.006	G_P	2.0	n/a	n/a	2.0	3.965	Gram/Gram_run-01/stereo_1MP26U1.wav	2.0	1	1.9889999999999999
132.7683	8.422	G_F	2.0	n/a	n/a	2.0	4.519	Gram/Gram_run-01/stereo_1MF06U1.wav	2.0	1	3.9239999999999995
141.1919	7.885	G_P	2.0	n/a	n/a	2.0	3.7060000000000004	Gram/Gram_run-01/stereo_2MP81U2.wav	2.0	1	2.8209999999999997
149.082	6.127000000000002	G_G	1.0	n/a	n/a	1.0	3.2569999999999997	Gram/Gram_run-01/stereo_2MP83G2.wav	1.0	1	2.197
155.2198	5.765	G_C	1.0	n/a	n/a	1.0	0.345	Gram/Gram_run-01/CoM02b.wav	1.0	1	1.095
160.9908	6.706	G_P	2.0	n/a	n/a	2.0	5.45	Gram/Gram_run-01/stereo_2MP93U4.wav	2.0	1	3.0500000000000007
167.7098	6.61	G_P	2.0	n/a	n/a	2.0	3.9989999999999997	Gram/Gram_run-01/stereo_1MP28U1.wav	2.0	1	1.8840000000000008
174.3313	6.63	G_C	1.0	n/a	n/a	1.0	0.945	Gram/Gram_run-01/CoM04b.wav	1.0	1	1.6949999999999998
180.9695	5.665	G_P	2.0	n/a	n/a	1.0	4.075	Gram/Gram_run-01/stereo_1MP27U1.wav	1.0	0	2.0730000000000004
186.6404	7.55	G_G	1.0	n/a	n/a	1.0	4.59	Gram/Gram_run-01/stereo_2MP77G1.wav	1.0	1	2.4909999999999997
194.1961	6.51	G_C	1.0	n/a	n/a	1.0	0.525	Gram/Gram_run-01/CoM03e.wav	1.0	1	1.275
200.7177	6.98	G_P	2.0	n/a	n/a	2.0	4.271	Gram/Gram_run-01/stereo_2MP92U4.wav	2.0	1	1.9219999999999997
207.7062	7.047999999999999	G_G	1.0	n/a	n/a	1.0	3.8280000000000003	Gram/Gram_run-01/stereo_1MF12G2.wav	1.0	1	2.7939999999999996
214.7613	5.574	G_F	2.0	n/a	n/a	2.0	3.87	Gram/Gram_run-01/stereo_1MF04U1.wav	2.0	1	3.282
220.3488	5.67	G_C	1.0	n/a	n/a	1.0	0.331	Gram/Gram_run-01/CoM07d.wav	1.0	1	1.081
226.0205	6.6160000000000005	G_P	2.0	n/a	n/a	1.0	4.079	Gram/Gram_run-01/stereo_1MP39U3.wav	1.0	0	3.0749999999999997
232.6421	5.695	G_P	2.0	n/a	n/a	2.0	3.4010000000000002	Gram/Gram_run-01/stereo_2MP82U2.wav	2.0	1	2.48
238.3464	6.627000000000002	G_F	2.0	n/a	n/a	1.0	3.136	Gram/Gram_run-01/stereo_1MF13U3.wav	1.0	0	3.886
244.9846	7.145	G_C	1.0	n/a	n/a	1.0	0.278	Gram/Gram_run-01/CoM08e.wav	1.0	1	1.028
252.1398	6.805	G_G	1.0	n/a	n/a	n/a	n/a	Gram/Gram_run-01/stereo_1MP41G3.wav	n/a	0	n/a
258.9458	7.519	G_P	2.0	n/a	n/a	n/a	n/a	Gram/Gram_run-01/stereo_1MP38U3.wav	n/a	0	n/a
