onset	duration	trial_type	correct	window1_response	window1_RT	window2_response	window2_RT	stim_file	calculated_response	calculated_accuracy	calculated_RT
1.0924	3.5	P_R	1.0	n/a	n/a	1.0	1.946	Phon/Phon_run-02/stereo_PR20.wav	1.0	1	1.696
4.595	4.235	P_O	1.0	n/a	n/a	1.0	1.308	Phon/Phon_run-02/PC034.wav	1.0	1	1.058
8.8325	3.375	P_R	1.0	n/a	n/a	1.0	1.4169999999999998	Phon/Phon_run-02/stereo_PR13.wav	1.0	1	1.1669999999999998
12.2183	3.474	P_C	1.0	n/a	n/a	1.0	0.38299999999999995	Phon/Phon_run-02/ContS12.wav	1.0	1	1.133
15.7041	3.875	P_U	2.0	n/a	n/a	1.0	1.7919999999999998	Phon/Phon_run-02/PM025.wav	1.0	0	1.5419999999999998
19.5903	3.726	P_R	1.0	n/a	n/a	1.0	1.368	Phon/Phon_run-02/stereo_PR22.wav	1.0	1	1.118
23.3263	3.451	P_O	1.0	n/a	n/a	2.0	1.073	Phon/Phon_run-02/PC014.wav	2.0	0	0.823
26.7799	3.779	P_C	1.0	n/a	n/a	1.0	0.267	Phon/Phon_run-02/ContS02.wav	1.0	1	1.017
30.566	3.821	P_U	2.0	n/a	n/a	2.0	1.364	Phon/Phon_run-02/stereo_PU18.wav	2.0	1	1.114
34.402	3.49	P_U	2.0	n/a	n/a	n/a	n/a	Phon/Phon_run-02/stereo_PU12.wav	n/a	0	n/a
37.9046	4.38	P_C	1.0	n/a	n/a	1.0	0.815	Phon/Phon_run-02/ContS32.wav	1.0	1	1.565
42.291000000000004	4.0969999999999995	P_R	1.0	n/a	n/a	1.0	2.398	Phon/Phon_run-02/stereo_PR16.wav	1.0	1	2.148
46.394	3.5	P_O	1.0	n/a	n/a	2.0	1.2590000000000001	Phon/Phon_run-02/PC022.wav	2.0	0	1.009
49.8966	4.0760000000000005	P_R	1.0	n/a	n/a	1.0	1.097	Phon/Phon_run-02/stereo_PR08.wav	1.0	1	0.847
53.983000000000004	3.5	P_O	1.0	n/a	n/a	2.0	1.389	Phon/Phon_run-02/PC028.wav	2.0	0	1.139
57.4856	3.5	P_U	2.0	n/a	n/a	2.0	2.063	Phon/Phon_run-02/stereo_PU27.wav	2.0	1	1.8130000000000002
60.9881	3.819	P_C	1.0	n/a	n/a	1.0	0.243	Phon/Phon_run-02/ContS06.wav	1.0	1	0.993
64.8086	4.25	P_O	1.0	n/a	n/a	n/a	n/a	Phon/Phon_run-02/PC031.wav	n/a	0	n/a
69.062	3.662	P_C	1.0	n/a	n/a	1.0	0.743	Phon/Phon_run-02/ContS36.wav	1.0	1	1.4929999999999999
72.7312	3.823	P_O	1.0	n/a	n/a	1.0	2.177	Phon/Phon_run-02/PC023.wav	1.0	1	1.927
76.5674	4.323	P_C	1.0	n/a	n/a	1.0	0.8059999999999999	Phon/Phon_run-02/ContS24.wav	1.0	1	1.556
80.9038	3.865	P_U	2.0	n/a	n/a	n/a	n/a	Phon/Phon_run-02/PM004.wav	n/a	0	n/a
84.7733	3.875	P_O	1.0	n/a	n/a	1.0	1.966	Phon/Phon_run-02/PC007.wav	1.0	1	1.716
88.6594	4.25	P_U	2.0	n/a	n/a	1.0	2.012	Phon/Phon_run-02/PM011.wav	1.0	0	1.762
92.9126	4.362	P_C	1.0	n/a	n/a	1.0	0.684	Phon/Phon_run-02/ContS30.wav	1.0	1	1.4340000000000002
97.2825	3.875	P_O	1.0	n/a	n/a	n/a	n/a	Phon/Phon_run-02/PC030.wav	n/a	0	n/a
101.1687	3.3360000000000003	P_R	1.0	n/a	n/a	1.0	1.2229999999999999	Phon/Phon_run-02/stereo_PR05.wav	1.0	1	0.9730000000000001
104.5077	4.113	P_U	2.0	n/a	n/a	2.0	1.695	Phon/Phon_run-02/stereo_PU01.wav	2.0	1	1.445
108.6273	4.1739999999999995	P_U	2.0	n/a	n/a	2.0	1.7209999999999999	Phon/Phon_run-02/PM029.wav	2.0	1	1.471
112.8137	3.4539999999999997	P_C	1.0	n/a	n/a	1.0	1.2690000000000001	Phon/Phon_run-02/ContS08.wav	1.0	1	2.019
116.2828	3.446	P_R	1.0	n/a	n/a	1.0	1.082	Phon/Phon_run-02/stereo_PR30.wav	1.0	1	0.8320000000000001
119.7352	3.85	P_R	1.0	n/a	n/a	2.0	2.224	Phon/Phon_run-02/stereo_PR07.wav	2.0	0	1.9740000000000002
123.588	3.438	P_U	2.0	n/a	n/a	n/a	n/a	Phon/Phon_run-02/stereo_PU02.wav	n/a	0	n/a
127.0406	3.915	P_C	1.0	n/a	n/a	n/a	n/a	Phon/Phon_run-02/ContS20.wav	n/a	0	n/a
130.9601	3.487	P_U	2.0	n/a	n/a	2.0	1.18	Phon/Phon_run-02/PM021.wav	2.0	1	0.9299999999999999
134.46200000000002	3.965	P_C	1.0	n/a	n/a	1.0	0.374	Phon/Phon_run-02/ContS26.wav	1.0	1	1.124
138.4315	3.792	P_R	1.0	n/a	n/a	n/a	n/a	Phon/Phon_run-02/stereo_PR31.wav	n/a	0	n/a
142.2343	4.135	P_O	1.0	n/a	n/a	1.0	1.911	Phon/Phon_run-02/PC024.wav	1.0	1	1.661
146.3717	3.875	P_U	2.0	n/a	n/a	2.0	1.5519999999999998	Phon/Phon_run-02/PM010.wav	2.0	1	1.3019999999999998
150.2579	3.875	P_O	1.0	n/a	n/a	1.0	1.274	Phon/Phon_run-02/PC015.wav	1.0	1	1.024
154.144	4.245	P_C	1.0	n/a	n/a	1.0	0.688	Phon/Phon_run-02/ContS14.wav	1.0	1	1.438
158.3971	3.854	P_R	1.0	n/a	n/a	1.0	1.745	Phon/Phon_run-02/stereo_PR14.wav	1.0	1	1.495
162.2662	4.239	P_O	1.0	n/a	n/a	n/a	n/a	Phon/Phon_run-02/PC008.wav	n/a	0	n/a
166.5192	4.25	P_U	2.0	n/a	n/a	2.0	1.517	Phon/Phon_run-02/stereo_PU11.wav	2.0	1	1.267
170.7726	3.523	P_C	1.0	n/a	n/a	1.0	0.726	Phon/Phon_run-02/ContS18.wav	1.0	1	1.476
174.3085	3.429	P_O	1.0	n/a	n/a	n/a	n/a	Phon/Phon_run-02/PC006.wav	n/a	0	n/a
177.7443	4.18	P_R	1.0	n/a	n/a	1.0	0.904	Phon/Phon_run-02/stereo_PR32.wav	1.0	1	0.654
181.9307	4.104	P_R	1.0	n/a	n/a	1.0	2.474	Phon/Phon_run-02/stereo_PR24.wav	1.0	1	2.224
