onset	duration	trial_type	correct	window1_response	window1_RT	window2_response	window2_RT	stim_file	calculated_response	calculated_accuracy	calculated_RT
1.084	4.2010000000000005	S_U	2.0	n/a	n/a	2.0	1.4980000000000002	Sem/Sem_run-02/stereo_1SU33A0.wav	2.0	1	1.2480000000000002
5.287000000000001	3.486	S_U	2.0	n/a	n/a	2.0	1.855	Sem/Sem_run-02/stereo_2SU85A0.wav	2.0	1	1.605
8.773	3.8539999999999996	S_H	1.0	n/a	n/a	1.0	1.358	Sem/Sem_run-02/stereo_2SH50A0.wav	1.0	1	1.108
12.643	3.454	S_C	1.0	n/a	n/a	1.0	0.025	Sem/Sem_run-02/ContS08.wav	1.0	1	0.775
16.112000000000002	4.33	S_H	1.0	n/a	n/a	1.0	1.3119999999999998	Sem/Sem_run-02/stereo_1SH10A0.wav	1.0	1	1.0619999999999998
20.449	3.872	S_L	1.0	n/a	n/a	1.0	1.262	Sem/Sem_run-02/stereo_2SL61A0.wav	1.0	1	1.012
24.335	3.885	S_L	1.0	n/a	n/a	1.0	1.172	Sem/Sem_run-02/stereo_1SL23A0.wav	1.0	1	0.922
28.221	4.2	S_U	2.0	n/a	n/a	2.0	1.474	Sem/Sem_run-02/stereo_1SU42A0.wav	2.0	1	1.224
32.425	3.321	S_L	1.0	n/a	n/a	1.0	1.486	Sem/Sem_run-02/stereo_1SL16A0.wav	1.0	1	1.236
35.761	3.59	S_C	1.0	n/a	n/a	1.0	0.37799999999999995	Sem/Sem_run-02/ContS26.wav	1.0	1	1.128
39.363	4.4	S_H	1.0	n/a	n/a	1.0	1.662	Sem/Sem_run-02/stereo_2SH60A0.wav	1.0	1	1.412
43.767	4.311	S_L	1.0	n/a	n/a	1.0	1.646	Sem/Sem_run-02/stereo_2SL75A0.wav	1.0	1	1.396
48.087	3.912	S_H	1.0	n/a	n/a	1.0	1.167	Sem/Sem_run-02/stereo_2SH59A0.wav	1.0	1	0.917
52.007	4.4	S_U	2.0	n/a	n/a	2.0	1.915	Sem/Sem_run-02/stereo_2SU84A0.wav	2.0	1	1.665
56.41	3.4210000000000003	S_U	2.0	n/a	n/a	2.0	1.3659999999999999	Sem/Sem_run-02/stereo_1SU43A0.wav	2.0	1	1.116
59.846	3.8539999999999996	S_C	1.0	n/a	n/a	1.0	0.009000000000000001	Sem/Sem_run-02/ContS02.wav	1.0	1	0.759
63.716	4.37	S_L	1.0	n/a	n/a	1.0	1.3880000000000001	Sem/Sem_run-02/stereo_1SL19A0.wav	1.0	1	1.138
68.086	3.862	S_L	1.0	n/a	n/a	1.0	1.556	Sem/Sem_run-02/stereo_1SL18A0.wav	1.0	1	1.306
71.955	4.462	S_C	1.0	n/a	n/a	1.0	0.35	Sem/Sem_run-02/ContS22.wav	1.0	1	1.1
76.426	3.406	S_L	1.0	n/a	n/a	1.0	1.175	Sem/Sem_run-02/stereo_1SL21A0.wav	1.0	1	0.925
79.845	3.355	S_U	2.0	n/a	n/a	2.0	1.801	Sem/Sem_run-02/stereo_1SU36A0.wav	2.0	1	1.551
83.214	4.324	S_C	1.0	n/a	n/a	1.0	0.008	Sem/Sem_run-02/ContS04.wav	1.0	1	0.758
87.551	4.253	S_L	1.0	n/a	n/a	1.0	1.661	Sem/Sem_run-02/stereo_1SL24A0.wav	1.0	1	1.411
91.804	3.839	S_L	1.0	n/a	n/a	1.0	1.4780000000000002	Sem/Sem_run-02/stereo_2SL70A0.wav	1.0	1	1.2280000000000002
95.657	4.395	S_C	1.0	n/a	n/a	1.0	0.315	Sem/Sem_run-02/ContS14.wav	1.0	1	1.065
100.061	3.8739999999999997	S_H	1.0	n/a	n/a	1.0	0.995	Sem/Sem_run-02/stereo_1SH09A0.wav	1.0	1	0.745
103.947	3.75	S_U	2.0	n/a	n/a	2.0	1.399	Sem/Sem_run-02/stereo_1SU32A0.wav	2.0	1	1.149
107.7	3.641	S_C	1.0	n/a	n/a	1.0	0.331	Sem/Sem_run-02/ContS34.wav	1.0	1	1.081
111.353	3.338	S_U	2.0	n/a	n/a	2.0	1.146	Sem/Sem_run-02/stereo_1SU31A0.wav	2.0	1	0.8959999999999999
114.705	3.45	S_L	1.0	n/a	n/a	1.0	1.676	Sem/Sem_run-02/stereo_2SL68A0.wav	1.0	1	1.426
118.158	3.8510000000000004	S_H	1.0	n/a	n/a	1.0	1.052	Sem/Sem_run-02/stereo_1SH14A0.wav	1.0	1	0.802
122.011	3.459	S_H	1.0	n/a	n/a	1.0	1.276	Sem/Sem_run-02/stereo_1SH01A0.wav	1.0	1	1.026
125.48	3.512	S_C	1.0	n/a	n/a	1.0	0.42200000000000004	Sem/Sem_run-02/ContS16.wav	1.0	1	1.172
129.0	3.489	S_H	1.0	n/a	n/a	1.0	1.27	Sem/Sem_run-02/stereo_1SH12A0.wav	1.0	1	1.02
132.502	3.8489999999999998	S_U	2.0	n/a	n/a	2.0	1.4980000000000002	Sem/Sem_run-02/stereo_2SU86A0.wav	2.0	1	1.2480000000000002
136.355	3.46	S_L	1.0	n/a	n/a	1.0	1.103	Sem/Sem_run-02/stereo_1SL28A0.wav	1.0	1	0.853
139.825	4.53	S_C	1.0	1.0	0.698	n/a	n/a	Sem/Sem_run-02/ContS32.wav	1.0	1	0.698
144.362	4.351	S_H	1.0	n/a	n/a	1.0	1.8019999999999998	Sem/Sem_run-02/stereo_2SH52A0.wav	1.0	1	1.5519999999999998
148.715	3.48	S_H	1.0	n/a	n/a	2.0	1.6909999999999998	Sem/Sem_run-02/stereo_2SH47A0.wav	2.0	0	1.4409999999999998
152.201	3.3	S_H	1.0	n/a	n/a	1.0	1.679	Sem/Sem_run-02/stereo_2SH53A0.wav	1.0	1	1.429
155.504	3.847	S_U	2.0	n/a	n/a	2.0	1.258	Sem/Sem_run-02/stereo_1SU39A0.wav	2.0	1	1.008
159.357	3.923	S_C	1.0	n/a	n/a	1.0	0.41200000000000003	Sem/Sem_run-02/ContS10.wav	1.0	1	1.162
163.293	3.7510000000000003	S_U	2.0	n/a	n/a	2.0	1.37	Sem/Sem_run-02/stereo_2SU80A0.wav	2.0	1	1.12
167.046	4.2	S_L	1.0	n/a	n/a	2.0	1.64	Sem/Sem_run-02/stereo_2SL66A0.wav	2.0	0	1.39
171.24900000000005	3.99	S_C	1.0	n/a	n/a	1.0	0.121	Sem/Sem_run-02/ContS20.wav	1.0	1	0.871
175.252	4.041	S_C	1.0	n/a	n/a	1.0	0.218	Sem/Sem_run-02/ContS28.wav	1.0	1	0.968
179.305	4.2	S_U	2.0	n/a	n/a	2.0	1.469	Sem/Sem_run-02/stereo_2SU89A0.wav	2.0	1	1.219
183.509	4.368	S_H	1.0	n/a	n/a	1.0	1.39	Sem/Sem_run-02/stereo_2SH46A0.wav	1.0	1	1.14
