onset	duration	trial_type	correct	window1_response	window1_RT	window2_response	window2_RT	stim_file	calculated_response	calculated_accuracy	calculated_RT
1.085	3.4539999999999997	P_R	1.0	n/a	n/a	1.0	1.584	Phon/Phon_run-01/stereo_PR01.wav	1.0	1	1.334
4.5539999999999985	3.767	P_O	1.0	n/a	n/a	1.0	1.3840000000000001	Phon/Phon_run-01/PC018.wav	1.0	1	1.1340000000000001
8.323	3.391	P_O	1.0	n/a	n/a	1.0	1.579	Phon/Phon_run-01/PC009.wav	1.0	1	1.329
11.725999999999999	4.374	P_C	1.0	n/a	n/a	1.0	1.25	Phon/Phon_run-01/ContS11.wav	1.0	1	2.0
16.113	3.345	P_U	2.0	n/a	n/a	2.0	1.295	Phon/Phon_run-01/PM002.wav	2.0	1	1.045
19.465	4.4510000000000005	P_C	1.0	n/a	n/a	1.0	1.308	Phon/Phon_run-01/ContS21.wav	1.0	1	2.058
23.919	4.382	P_O	1.0	n/a	n/a	1.0	1.581	Phon/Phon_run-01/PC005.wav	1.0	1	1.331
28.305	3.3	P_U	2.0	n/a	n/a	1.0	1.8359999999999999	Phon/Phon_run-01/stereo_PU26.wav	1.0	0	1.5859999999999999
31.608	4.324	P_C	1.0	n/a	n/a	1.0	1.439	Phon/Phon_run-01/ContS03.wav	1.0	1	2.189
35.945	4.378	P_R	1.0	n/a	n/a	1.0	1.579	Phon/Phon_run-01/stereo_PR29.wav	1.0	1	1.329
40.330999999999996	3.4810000000000003	P_U	2.0	n/a	n/a	2.0	1.87	Phon/Phon_run-01/PM020.wav	2.0	1	1.62
43.817	4.393	P_O	1.0	n/a	n/a	2.0	1.56	Phon/Phon_run-01/PC027.wav	2.0	0	1.31
48.221000000000004	4.4	P_R	1.0	n/a	n/a	1.0	1.35	Phon/Phon_run-01/stereo_PR11.wav	1.0	1	1.1
52.62399999999999	3.884	P_C	1.0	n/a	n/a	1.0	0.727	Phon/Phon_run-01/ContS05.wav	1.0	1	1.4769999999999999
56.511	3.891	P_U	2.0	n/a	n/a	2.0	1.421	Phon/Phon_run-01/stereo_PU28.wav	2.0	1	1.171
60.41399999999999	4.4	P_O	1.0	n/a	n/a	1.0	1.578	Phon/Phon_run-01/PC013.wav	1.0	1	1.328
64.817	3.513	P_C	1.0	n/a	n/a	1.0	0.867	Phon/Phon_run-01/ContS17.wav	1.0	1	1.617
68.336	4.4	P_U	2.0	n/a	n/a	2.0	1.869	Phon/Phon_run-01/PM027.wav	2.0	1	1.619
72.74	4.4	P_O	1.0	n/a	n/a	2.0	1.9240000000000002	Phon/Phon_run-01/PC021.wav	2.0	0	1.6740000000000002
77.143	4.496	P_C	1.0	n/a	n/a	1.0	0.511	Phon/Phon_run-01/ContS29.wav	1.0	1	1.2610000000000001
81.64699999999998	3.3680000000000003	P_R	1.0	n/a	n/a	1.0	2.004	Phon/Phon_run-01/stereo_PR25.wav	1.0	1	1.754
85.016	3.95	P_O	1.0	n/a	n/a	1.0	1.305	Phon/Phon_run-01/PC012.wav	1.0	1	1.055
88.969	3.95	P_U	2.0	n/a	n/a	2.0	1.463	Phon/Phon_run-01/PM003.wav	2.0	1	1.213
92.92200000000001	3.939	P_O	1.0	n/a	n/a	1.0	1.285	Phon/Phon_run-01/PC004.wav	1.0	1	1.035
96.875	3.59	P_C	1.0	n/a	n/a	1.0	0.54	Phon/Phon_run-01/ContS27.wav	1.0	1	1.29
100.478	4.296	P_U	2.0	n/a	n/a	2.0	1.36	Phon/Phon_run-01/stereo_PU21.wav	2.0	1	1.11
104.781	3.862	P_R	1.0	n/a	n/a	1.0	1.252	Phon/Phon_run-01/stereo_PR26.wav	1.0	1	1.002
108.65100000000001	3.95	P_O	1.0	n/a	n/a	2.0	1.256	Phon/Phon_run-01/PC026.wav	2.0	0	1.006
112.604	3.5	P_O	1.0	n/a	n/a	1.0	1.7519999999999998	Phon/Phon_run-01/PC025.wav	1.0	1	1.5019999999999998
116.10600000000001	4.013	P_C	1.0	n/a	n/a	1.0	1.123	Phon/Phon_run-01/ContS23.wav	1.0	1	1.873
120.126	3.792	P_R	1.0	n/a	n/a	1.0	1.3730000000000002	Phon/Phon_run-01/stereo_PR18.wav	1.0	1	1.1230000000000002
123.929	3.346	P_U	2.0	n/a	n/a	2.0	1.568	Phon/Phon_run-01/stereo_PU19.wav	2.0	1	1.318
127.28200000000001	3.891	P_R	1.0	n/a	n/a	1.0	1.536	Phon/Phon_run-01/stereo_PR03.wav	1.0	1	1.286
131.185	3.355	P_O	1.0	n/a	n/a	1.0	1.361	Phon/Phon_run-01/PC003.wav	1.0	1	1.111
134.554	3.951	P_C	1.0	n/a	n/a	1.0	1.195	Phon/Phon_run-01/ContS15.wav	1.0	1	1.945
138.507	3.74	P_U	2.0	n/a	n/a	2.0	1.3559999999999999	Phon/Phon_run-01/stereo_PU16.wav	2.0	1	1.1059999999999999
142.26	3.95	P_R	1.0	n/a	n/a	1.0	1.5719999999999998	Phon/Phon_run-01/stereo_PR10.wav	1.0	1	1.3219999999999998
146.213	3.464	P_C	1.0	n/a	n/a	1.0	0.91	Phon/Phon_run-01/ContS09.wav	1.0	1	1.6600000000000001
149.68200000000004	4.275	P_R	1.0	n/a	n/a	1.0	1.182	Phon/Phon_run-01/stereo_PR04.wav	1.0	1	0.9319999999999999
153.969	3.95	P_U	2.0	n/a	n/a	2.0	1.351	Phon/Phon_run-01/PM023.wav	2.0	1	1.101
157.922	4.4	P_U	2.0	n/a	n/a	2.0	1.0	Phon/Phon_run-01/PM001.wav	2.0	1	0.75
162.325	3.665	P_C	1.0	n/a	n/a	1.0	0.171	Phon/Phon_run-01/ContS35.wav	1.0	1	0.921
165.995	3.463	P_O	1.0	n/a	n/a	1.0	1.3980000000000001	Phon/Phon_run-01/PC017.wav	1.0	1	1.1480000000000001
169.46400000000003	4.332	P_R	1.0	n/a	n/a	1.0	1.614	Phon/Phon_run-01/stereo_PR19.wav	1.0	1	1.364
173.801	4.083	P_C	1.0	n/a	n/a	1.0	1.092	Phon/Phon_run-01/ContS33.wav	1.0	1	1.842
177.887	3.5	P_R	1.0	n/a	n/a	1.0	1.3	Phon/Phon_run-01/stereo_PR17.wav	1.0	1	1.05
181.39	4.2669999999999995	P_U	2.0	n/a	n/a	2.0	1.2409999999999999	Phon/Phon_run-01/PM009.wav	2.0	1	0.9909999999999999
185.66	3.4389999999999996	P_R	1.0	n/a	n/a	1.0	1.3119999999999998	Phon/Phon_run-01/stereo_PR09.wav	1.0	1	1.0619999999999998
