onset	duration	trial_type	correct	window1_response	window1_RT	window2_response	window2_RT	stim_file	calculated_response	calculated_accuracy	calculated_RT
1.0924	3.5	P_R	1.0	n/a	n/a	n/a	n/a	Phon/Phon_run-02/stereo_PR20.wav	n/a	0	n/a
4.595	4.235	P_O	1.0	n/a	n/a	2.0	1.74	Phon/Phon_run-02/PC034.wav	2.0	0	1.49
8.8325	3.375	P_R	1.0	n/a	n/a	1.0	1.314	Phon/Phon_run-02/stereo_PR13.wav	1.0	1	1.064
12.2183	3.474	P_C	1.0	n/a	n/a	1.0	0.983	Phon/Phon_run-02/ContS12.wav	1.0	1	1.733
15.7041	3.875	P_U	2.0	n/a	n/a	2.0	1.9569999999999999	Phon/Phon_run-02/PM025.wav	2.0	1	1.707
19.5903	3.726	P_R	1.0	n/a	n/a	1.0	1.067	Phon/Phon_run-02/stereo_PR22.wav	1.0	1	0.817
23.3263	3.451	P_O	1.0	n/a	n/a	1.0	1.528	Phon/Phon_run-02/PC014.wav	1.0	1	1.278
26.7799	3.779	P_C	1.0	n/a	n/a	1.0	0.821	Phon/Phon_run-02/ContS02.wav	1.0	1	1.571
30.566	3.821	P_U	2.0	n/a	n/a	2.0	1.76	Phon/Phon_run-02/stereo_PU18.wav	2.0	1	1.51
34.402	3.49	P_U	2.0	n/a	n/a	2.0	1.619	Phon/Phon_run-02/stereo_PU12.wav	2.0	1	1.369
37.9046	4.38	P_C	1.0	n/a	n/a	1.0	0.92	Phon/Phon_run-02/ContS32.wav	1.0	1	1.67
42.291000000000004	4.0969999999999995	P_R	1.0	n/a	n/a	2.0	1.483	Phon/Phon_run-02/stereo_PR16.wav	2.0	0	1.233
46.394	3.5	P_O	1.0	n/a	n/a	2.0	2.211	Phon/Phon_run-02/PC022.wav	2.0	0	1.9609999999999999
49.8966	4.0760000000000005	P_R	1.0	n/a	n/a	n/a	n/a	Phon/Phon_run-02/stereo_PR08.wav	n/a	0	n/a
53.983000000000004	3.5	P_O	1.0	n/a	n/a	2.0	1.919	Phon/Phon_run-02/PC028.wav	2.0	0	1.669
57.4856	3.5	P_U	2.0	n/a	n/a	2.0	1.621	Phon/Phon_run-02/stereo_PU27.wav	2.0	1	1.371
60.9881	3.819	P_C	1.0	n/a	n/a	1.0	1.058	Phon/Phon_run-02/ContS06.wav	1.0	1	1.808
64.8086	4.25	P_O	1.0	n/a	n/a	1.0	1.9369999999999998	Phon/Phon_run-02/PC031.wav	1.0	1	1.687
69.062	3.662	P_C	1.0	n/a	n/a	1.0	2.157	Phon/Phon_run-02/ContS36.wav	1.0	1	2.907
72.7312	3.823	P_O	1.0	n/a	n/a	1.0	1.975	Phon/Phon_run-02/PC023.wav	1.0	1	1.725
76.5674	4.323	P_C	1.0	n/a	n/a	1.0	1.8619999999999999	Phon/Phon_run-02/ContS24.wav	1.0	1	2.612
80.9038	3.865	P_U	2.0	n/a	n/a	2.0	2.515	Phon/Phon_run-02/PM004.wav	2.0	1	2.265
84.7733	3.875	P_O	1.0	n/a	n/a	1.0	2.0780000000000003	Phon/Phon_run-02/PC007.wav	1.0	1	1.8280000000000003
88.6594	4.25	P_U	2.0	n/a	n/a	2.0	2.134	Phon/Phon_run-02/PM011.wav	2.0	1	1.884
92.9126	4.362	P_C	1.0	n/a	n/a	1.0	2.713	Phon/Phon_run-02/ContS30.wav	1.0	1	3.463
97.2825	3.875	P_O	1.0	n/a	n/a	1.0	1.709	Phon/Phon_run-02/PC030.wav	1.0	1	1.459
101.1687	3.3360000000000003	P_R	1.0	n/a	n/a	1.0	1.814	Phon/Phon_run-02/stereo_PR05.wav	1.0	1	1.564
104.5077	4.113	P_U	2.0	n/a	n/a	2.0	1.869	Phon/Phon_run-02/stereo_PU01.wav	2.0	1	1.619
108.6273	4.1739999999999995	P_U	2.0	n/a	n/a	2.0	1.6980000000000002	Phon/Phon_run-02/PM029.wav	2.0	1	1.4480000000000002
112.8137	3.4539999999999997	P_C	1.0	n/a	n/a	1.0	1.255	Phon/Phon_run-02/ContS08.wav	1.0	1	2.005
116.2828	3.446	P_R	1.0	n/a	n/a	1.0	1.693	Phon/Phon_run-02/stereo_PR30.wav	1.0	1	1.443
119.7352	3.85	P_R	1.0	n/a	n/a	2.0	1.431	Phon/Phon_run-02/stereo_PR07.wav	2.0	0	1.181
123.588	3.438	P_U	2.0	n/a	n/a	n/a	n/a	Phon/Phon_run-02/stereo_PU02.wav	n/a	0	n/a
127.0406	3.915	P_C	1.0	n/a	n/a	1.0	0.105	Phon/Phon_run-02/ContS20.wav	1.0	1	0.855
130.9601	3.487	P_U	2.0	n/a	n/a	n/a	n/a	Phon/Phon_run-02/PM021.wav	n/a	0	n/a
134.46200000000002	3.965	P_C	1.0	n/a	n/a	2.0	1.0490000000000002	Phon/Phon_run-02/ContS26.wav	2.0	0	1.7990000000000002
138.4315	3.792	P_R	1.0	n/a	n/a	1.0	1.922	Phon/Phon_run-02/stereo_PR31.wav	1.0	1	1.672
142.2343	4.135	P_O	1.0	n/a	n/a	1.0	1.694	Phon/Phon_run-02/PC024.wav	1.0	1	1.444
146.3717	3.875	P_U	2.0	n/a	n/a	1.0	1.73	Phon/Phon_run-02/PM010.wav	1.0	0	1.48
150.2579	3.875	P_O	1.0	n/a	n/a	2.0	1.5619999999999998	Phon/Phon_run-02/PC015.wav	2.0	0	1.3119999999999998
154.144	4.245	P_C	1.0	n/a	n/a	1.0	1.462	Phon/Phon_run-02/ContS14.wav	1.0	1	2.2119999999999997
158.3971	3.854	P_R	1.0	n/a	n/a	2.0	2.24	Phon/Phon_run-02/stereo_PR14.wav	2.0	0	1.9900000000000002
162.2662	4.239	P_O	1.0	n/a	n/a	1.0	2.171	Phon/Phon_run-02/PC008.wav	1.0	1	1.9209999999999998
166.5192	4.25	P_U	2.0	n/a	n/a	2.0	2.3569999999999998	Phon/Phon_run-02/stereo_PU11.wav	2.0	1	2.107
170.7726	3.523	P_C	1.0	n/a	n/a	1.0	1.575	Phon/Phon_run-02/ContS18.wav	1.0	1	2.325
174.3085	3.429	P_O	1.0	n/a	n/a	1.0	1.895	Phon/Phon_run-02/PC006.wav	1.0	1	1.645
177.7443	4.18	P_R	1.0	n/a	n/a	1.0	1.781	Phon/Phon_run-02/stereo_PR32.wav	1.0	1	1.531
181.9307	4.104	P_R	1.0	n/a	n/a	1.0	1.989	Phon/Phon_run-02/stereo_PR24.wav	1.0	1	1.739
