onset	duration	trial_type	correct	window1_response	window1_RT	window2_response	window2_RT	stim_file	calculated_response	calculated_accuracy	calculated_RT
1.084	4.2	S_U	2.0	n/a	n/a	1.0	1.385	Sem/Sem_run-01/stereo_1SU41A0.wav	1.0	0	1.135
5.287000000000001	3.596	S_C	1.0	n/a	n/a	1.0	0.084	Sem/Sem_run-01/ContS29.wav	1.0	1	0.8340000000000001
8.89	3.425	S_U	2.0	n/a	n/a	2.0	1.349	Sem/Sem_run-01/stereo_2SU87A0.wav	2.0	1	1.099
12.325999999999999	3.933	S_H	1.0	n/a	n/a	1.0	1.19	Sem/Sem_run-01/stereo_1SH13A0.wav	1.0	1	0.94
16.262	4.323	S_H	1.0	n/a	n/a	1.0	0.856	Sem/Sem_run-01/stereo_1SH05A0.wav	1.0	1	0.606
20.599	4.073	S_C	1.0	1.0	0.746	1.0	2.059	Sem/Sem_run-01/ContS31.wav	1.0	1	0.746
24.685	3.869	S_L	1.0	n/a	n/a	1.0	1.005	Sem/Sem_run-01/stereo_2SL63A0.wav	1.0	1	0.7549999999999999
28.555	3.75	S_L	1.0	n/a	n/a	1.0	1.033	Sem/Sem_run-01/stereo_1SL29A0.wav	1.0	1	0.7829999999999999
32.308	4.3660000000000005	S_U	2.0	n/a	n/a	2.0	1.558	Sem/Sem_run-01/stereo_2SU78A0.wav	2.0	1	1.308
36.678000000000004	3.3	S_L	1.0	n/a	n/a	1.0	1.046	Sem/Sem_run-01/stereo_1SL17A0.wav	1.0	1	0.7959999999999999
39.981	3.884	S_C	1.0	1.0	0.66	1.0	0.8740000000000001	Sem/Sem_run-01/ContS05.wav	1.0	1	0.66
43.867	4.371	S_H	1.0	n/a	n/a	1.0	1.4409999999999998	Sem/Sem_run-01/stereo_2SH58A0.wav	1.0	1	1.1909999999999998
48.254	4.329	S_L	1.0	n/a	n/a	1.0	1.127	Sem/Sem_run-01/stereo_2SL72A0.wav	1.0	1	0.877
52.59	3.94	S_H	1.0	n/a	n/a	1.0	0.888	Sem/Sem_run-01/stereo_2SH57A0.wav	1.0	1	0.638
56.544	4.2	S_U	2.0	n/a	n/a	2.0	2.4130000000000003	Sem/Sem_run-01/stereo_2SU83A0.wav	2.0	1	2.1630000000000003
60.747	3.474	S_C	1.0	2.0	0.67	1.0	0.7440000000000001	Sem/Sem_run-01/ContS11.wav	2.0	0	0.67
64.233	4.271	S_L	1.0	n/a	n/a	1.0	1.3940000000000001	Sem/Sem_run-01/stereo_1SL26A0.wav	1.0	1	1.1440000000000001
68.51899999999999	3.91	S_L	1.0	n/a	n/a	1.0	1.104	Sem/Sem_run-01/stereo_1SL25A0.wav	1.0	1	0.8540000000000001
72.439	4.479	S_C	1.0	1.0	0.6609999999999999	1.0	0.547	Sem/Sem_run-01/ContS25.wav	1.0	1	0.6609999999999999
76.926	3.378	S_U	2.0	n/a	n/a	2.0	1.64	Sem/Sem_run-01/stereo_2SU81A0.wav	2.0	1	1.39
80.312	3.42	S_L	1.0	n/a	n/a	1.0	1.591	Sem/Sem_run-01/stereo_1SL27A0.wav	1.0	1	1.341
83.74799999999998	4.3439999999999985	S_L	1.0	n/a	n/a	1.0	1.317	Sem/Sem_run-01/stereo_1SL30A0.wav	1.0	1	1.067
88.101	3.909	S_L	1.0	n/a	n/a	1.0	1.3969999999999998	Sem/Sem_run-01/stereo_2SL71A0.wav	1.0	1	1.1469999999999998
92.021	3.867	S_H	1.0	n/a	n/a	1.0	1.2590000000000001	Sem/Sem_run-01/stereo_1SH04A0.wav	1.0	1	1.0090000000000001
95.891	3.828	S_U	2.0	n/a	n/a	2.0	1.531	Sem/Sem_run-01/stereo_1SU37A0.wav	2.0	1	1.281
99.727	4.565	S_C	1.0	n/a	n/a	1.0	0.24100000000000002	Sem/Sem_run-01/ContS35.wav	1.0	1	0.991
104.29700000000001	3.3	S_U	2.0	n/a	n/a	1.0	1.2	Sem/Sem_run-01/stereo_1SU35A0.wav	1.0	0	0.95
107.6	3.477	S_L	1.0	n/a	n/a	1.0	1.393	Sem/Sem_run-01/stereo_2SL65A0.wav	1.0	1	1.143
111.086	3.83	S_H	1.0	n/a	n/a	1.0	0.996	Sem/Sem_run-01/stereo_1SH07A0.wav	1.0	1	0.746
114.92200000000001	4.3439999999999985	S_C	1.0	2.0	0.5489999999999999	1.0	0.635	Sem/Sem_run-01/ContS07.wav	2.0	0	0.5489999999999999
119.27600000000001	3.5	S_H	1.0	n/a	n/a	1.0	1.0590000000000002	Sem/Sem_run-01/stereo_1SH03A0.wav	1.0	1	0.8090000000000002
122.77799999999999	3.919	S_U	2.0	n/a	n/a	2.0	1.739	Sem/Sem_run-01/stereo_1SU45A0.wav	2.0	1	1.489
126.698	3.5	S_H	1.0	n/a	n/a	1.0	1.09	Sem/Sem_run-01/stereo_1SH06A0.wav	1.0	1	0.8400000000000001
130.201	3.392	S_L	1.0	n/a	n/a	1.0	0.997	Sem/Sem_run-01/stereo_2SL62A0.wav	1.0	1	0.747
133.60299999999998	3.54	S_C	1.0	n/a	n/a	1.0	0.336	Sem/Sem_run-01/ContS19.wav	1.0	1	1.086
137.156	4.4	S_H	1.0	n/a	n/a	1.0	0.8140000000000001	Sem/Sem_run-01/stereo_1SH15A0.wav	1.0	1	0.5640000000000001
141.56	3.342	S_H	1.0	n/a	n/a	1.0	1.111	Sem/Sem_run-01/stereo_1SH11A0.wav	1.0	1	0.861
144.912	3.385	S_U	2.0	n/a	n/a	2.0	1.87	Sem/Sem_run-01/stereo_1SU44A0.wav	2.0	1	1.62
148.298	3.4160000000000004	S_H	1.0	n/a	n/a	1.0	1.66	Sem/Sem_run-01/stereo_2SH56A0.wav	1.0	1	1.41
151.717	3.849	S_U	2.0	n/a	n/a	2.0	1.126	Sem/Sem_run-01/stereo_2SU82A0.wav	2.0	1	0.8759999999999999
155.57	3.934	S_C	1.0	1.0	0.6779999999999999	1.0	0.391	Sem/Sem_run-01/ContS13.wav	1.0	1	0.6779999999999999
159.507	4.309	S_L	1.0	n/a	n/a	1.0	0.877	Sem/Sem_run-01/stereo_2SL64A0.wav	1.0	1	0.627
163.827	4.413	S_C	1.0	1.0	0.586	1.0	0.65	Sem/Sem_run-01/ContS17.wav	1.0	1	0.586
168.247	4.2	S_U	2.0	n/a	n/a	2.0	1.24	Sem/Sem_run-01/stereo_2SU90A0.wav	2.0	1	0.99
172.45	3.846	S_U	2.0	n/a	n/a	2.0	1.258	Sem/Sem_run-01/stereo_2SU88A0.wav	2.0	1	1.008
176.303	3.3939999999999997	S_C	1.0	n/a	n/a	1.0	0.452	Sem/Sem_run-01/ContS01.wav	1.0	1	1.202
179.706	4.013	S_C	1.0	n/a	n/a	1.0	1.08	Sem/Sem_run-01/ContS23.wav	1.0	1	1.83
183.726	4.227	S_H	1.0	n/a	n/a	1.0	1.1440000000000001	Sem/Sem_run-01/stereo_1SH08A0.wav	1.0	1	0.8940000000000001
