onset	duration	trial_type	correct	window1_response	window1_RT	window2_response	window2_RT	stim_file	calculated_response	calculated_accuracy	calculated_RT
1.0925	3.4539999999999997	P_R	1.0	n/a	n/a	n/a	n/a	Phon/Phon_run-01/stereo_PR01.wav	n/a	0	n/a
4.5615	3.767	P_O	1.0	n/a	n/a	1.0	1.776	Phon/Phon_run-01/PC018.wav	1.0	1	1.526
8.3317	3.391	P_O	1.0	n/a	n/a	1.0	1.327	Phon/Phon_run-01/PC009.wav	1.0	1	1.077
11.7341	4.374	P_C	1.0	n/a	n/a	1.0	0.054000000000000006	Phon/Phon_run-01/ContS11.wav	1.0	1	0.804
16.1207	3.345	P_U	2.0	n/a	n/a	2.0	1.861	Phon/Phon_run-01/PM002.wav	2.0	1	1.611
19.473	4.4510000000000005	P_C	1.0	n/a	n/a	1.0	0.324	Phon/Phon_run-01/ContS21.wav	1.0	1	1.074
23.9275	4.382	P_O	1.0	n/a	n/a	1.0	1.3030000000000002	Phon/Phon_run-01/PC005.wav	1.0	1	1.0530000000000002
28.314	3.3	P_U	2.0	n/a	n/a	2.0	1.347	Phon/Phon_run-01/stereo_PU26.wav	2.0	1	1.097
31.6165	4.324	P_C	1.0	n/a	n/a	1.0	0.253	Phon/Phon_run-01/ContS03.wav	1.0	1	1.0030000000000001
35.9529	4.378	P_R	1.0	n/a	n/a	1.0	2.53	Phon/Phon_run-01/stereo_PR29.wav	1.0	1	2.28
40.3393	3.4810000000000003	P_U	2.0	n/a	n/a	2.0	2.1959999999999997	Phon/Phon_run-01/PM020.wav	2.0	1	1.9460000000000002
43.8252	4.393	P_O	1.0	n/a	n/a	1.0	1.7730000000000001	Phon/Phon_run-01/PC027.wav	1.0	1	1.523
48.2284	4.4	P_R	1.0	n/a	n/a	1.0	1.9280000000000002	Phon/Phon_run-01/stereo_PR11.wav	1.0	1	1.678
52.6316	3.884	P_C	1.0	1.0	0.37799999999999995	n/a	n/a	Phon/Phon_run-01/ContS05.wav	1.0	1	0.378
56.5186	3.891	P_U	2.0	n/a	n/a	2.0	1.6640000000000001	Phon/Phon_run-01/stereo_PU28.wav	2.0	1	1.414
60.4213	4.4	P_O	1.0	n/a	n/a	2.0	2.113	Phon/Phon_run-01/PC013.wav	2.0	0	1.863
64.8247	3.513	P_C	1.0	n/a	n/a	1.0	0.6559999999999999	Phon/Phon_run-01/ContS17.wav	1.0	1	1.406
68.3439	4.4	P_U	2.0	n/a	n/a	n/a	n/a	Phon/Phon_run-01/PM027.wav	n/a	0	n/a
72.7471	4.4	P_O	1.0	n/a	n/a	1.0	2.09	Phon/Phon_run-01/PC021.wav	1.0	1	1.8399999999999999
77.1504	4.496	P_C	1.0	n/a	n/a	1.0	0.39399999999999996	Phon/Phon_run-01/ContS29.wav	1.0	1	1.1440000000000001
81.6536	3.3680000000000003	P_R	1.0	n/a	n/a	n/a	n/a	Phon/Phon_run-01/stereo_PR25.wav	n/a	0	n/a
85.0239	3.95	P_O	1.0	n/a	n/a	2.0	1.767	Phon/Phon_run-01/PC012.wav	2.0	0	1.517
88.9768	3.95	P_U	2.0	n/a	n/a	2.0	1.446	Phon/Phon_run-01/PM003.wav	2.0	1	1.196
92.9297	3.939	P_O	1.0	2.0	0.34	1.0	2.608	Phon/Phon_run-01/PC004.wav	1.0	1	2.358
96.8826	3.59	P_C	1.0	2.0	0.003	1.0	0.19399999999999998	Phon/Phon_run-01/ContS27.wav	2.0	0	0.003
100.4851	4.296	P_U	2.0	n/a	n/a	2.0	2.8930000000000002	Phon/Phon_run-01/stereo_PU21.wav	2.0	1	2.643
104.7882	3.862	P_R	1.0	n/a	n/a	1.0	1.6130000000000002	Phon/Phon_run-01/stereo_PR26.wav	1.0	1	1.3630000000000002
108.6576	3.95	P_O	1.0	n/a	n/a	1.0	1.558	Phon/Phon_run-01/PC026.wav	1.0	1	1.308
112.6107	3.5	P_O	1.0	n/a	n/a	2.0	1.643	Phon/Phon_run-01/PC025.wav	2.0	0	1.393
116.1133	4.013	P_C	1.0	n/a	n/a	1.0	1.379	Phon/Phon_run-01/ContS23.wav	1.0	1	2.129
120.1329	3.792	P_R	1.0	n/a	n/a	1.0	2.3680000000000003	Phon/Phon_run-01/stereo_PR18.wav	1.0	1	2.1180000000000003
123.9359	3.346	P_U	2.0	n/a	n/a	n/a	n/a	Phon/Phon_run-01/stereo_PU19.wav	n/a	0	n/a
127.2885	3.891	P_R	1.0	n/a	n/a	1.0	2.302	Phon/Phon_run-01/stereo_PR03.wav	1.0	1	2.052
131.1913	3.355	P_O	1.0	n/a	n/a	n/a	n/a	Phon/Phon_run-01/PC003.wav	n/a	0	n/a
134.5604	3.951	P_C	1.0	2.0	0.35100000000000003	1.0	0.512	Phon/Phon_run-01/ContS15.wav	2.0	0	0.35100000000000003
138.5144	3.74	P_U	2.0	n/a	n/a	2.0	2.0	Phon/Phon_run-01/stereo_PU16.wav	2.0	1	1.75
142.2671	3.95	P_R	1.0	n/a	n/a	1.0	1.681	Phon/Phon_run-01/stereo_PR10.wav	1.0	1	1.431
146.22	3.464	P_C	1.0	n/a	n/a	1.0	0.359	Phon/Phon_run-01/ContS09.wav	1.0	1	1.109
149.6892	4.275	P_R	1.0	n/a	n/a	n/a	n/a	Phon/Phon_run-01/stereo_PR04.wav	n/a	0	n/a
153.9756	3.95	P_U	2.0	n/a	n/a	2.0	1.51	Phon/Phon_run-01/PM023.wav	2.0	1	1.26
157.9284	4.4	P_U	2.0	n/a	n/a	2.0	2.9160000000000004	Phon/Phon_run-01/PM001.wav	2.0	1	2.6660000000000004
162.3319	3.665	P_C	1.0	n/a	n/a	1.0	0.053	Phon/Phon_run-01/ContS35.wav	1.0	1	0.803
166.0011	3.463	P_O	1.0	n/a	n/a	n/a	n/a	Phon/Phon_run-01/PC017.wav	n/a	0	n/a
169.4703	4.332	P_R	1.0	n/a	n/a	1.0	1.338	Phon/Phon_run-01/stereo_PR19.wav	1.0	1	1.088
173.8067	4.083	P_C	1.0	1.0	0.621	n/a	n/a	Phon/Phon_run-01/ContS33.wav	1.0	1	0.621
177.893	3.5	P_R	1.0	n/a	n/a	1.0	2.07	Phon/Phon_run-01/stereo_PR17.wav	1.0	1	1.8199999999999998
181.3956	4.2669999999999995	P_U	2.0	n/a	n/a	2.0	1.3730000000000002	Phon/Phon_run-01/PM009.wav	2.0	1	1.1230000000000002
185.6658	3.4389999999999996	P_R	1.0	n/a	n/a	1.0	2.072	Phon/Phon_run-01/stereo_PR09.wav	1.0	1	1.822
