onset	duration	trial_type	correct	window1_response	window1_RT	window2_response	window2_RT	stim_file	calculated_response	calculated_accuracy	calculated_RT
1.0934	7.632999999999999	G_P	2.0	n/a	n/a	2.0	4.531000000000001	Gram/Gram_run-02/stereo_1MP45U4.wav	2.0	1	2.4000000000000012
8.7323	7.315	G_F	2.0	n/a	n/a	1.0	4.508	Gram/Gram_run-02/stereo_1MF20U4.wav	1.0	0	3.7979999999999996
16.0543	6.2829999999999995	G_P	2.0	n/a	n/a	2.0	3.345	Gram/Gram_run-02/stereo_1MP34U2.wav	2.0	1	2.253
22.3421	6.195	G_C	1.0	n/a	n/a	1.0	2.452	Gram/Gram_run-02/CoM06d.wav	1.0	1	3.202
28.5465	6.221	G_G	1.0	n/a	n/a	1.0	4.573	Gram/Gram_run-02/stereo_1MF02G1.wav	1.0	1	2.5330000000000004
34.769	5.801	G_F	2.0	n/a	n/a	2.0	3.153	Gram/Gram_run-02/stereo_2MF64U3.wav	2.0	1	3.903
40.5743	6.78	G_C	1.0	n/a	n/a	1.0	1.203	Gram/Gram_run-02/CoM07l.wav	1.0	1	1.953
47.3625	6.084	G_F	2.0	n/a	n/a	2.0	3.4130000000000003	Gram/Gram_run-02/stereo_2MF56U2.wav	2.0	1	4.163
53.4512	7.5470000000000015	G_F	2.0	n/a	n/a	2.0	5.045	Gram/Gram_run-02/stereo_1MF21U4.wav	2.0	1	4.294
61.0065	6.482	G_G	1.0	n/a	n/a	1.0	4.7139999999999995	Gram/Gram_run-02/stereo_1MF24G4.wav	1.0	1	2.3530000000000006
67.4946	6.7810000000000015	G_P	2.0	n/a	n/a	2.0	4.535	Gram/Gram_run-02/stereo_2MP76U1.wav	2.0	1	2.2730000000000006
74.2828	6.643	G_P	2.0	n/a	n/a	2.0	3.389	Gram/Gram_run-02/stereo_2MP80U2.wav	2.0	1	2.433
80.9376	7.69	G_C	1.0	n/a	n/a	1.0	1.3969999999999998	Gram/Gram_run-02/CoM06e.wav	1.0	1	2.147
88.639	6.352	G_F	2.0	n/a	n/a	2.0	3.49	Gram/Gram_run-02/stereo_2MF63U3.wav	2.0	1	4.24
94.9947	5.801	G_G	1.0	n/a	n/a	n/a	n/a	Gram/Gram_run-02/stereo_1MF18G3.wav	n/a	0	n/a
100.8001	7.1129999999999995	G_P	2.0	n/a	n/a	2.0	4.194	Gram/Gram_run-02/stereo_1MP44U4.wav	2.0	1	1.8369999999999997
107.9218	6.78	G_C	1.0	n/a	n/a	1.0	0.382	Gram/Gram_run-02/CoM05b.wav	1.0	1	1.1320000000000001
114.7101	6.7360000000000015	G_F	2.0	n/a	n/a	2.0	3.7460000000000004	Gram/Gram_run-02/stereo_2MF58U2.wav	2.0	1	4.496
121.4494	6.0889999999999995	G_P	2.0	n/a	n/a	2.0	3.603	Gram/Gram_run-02/stereo_2MP87U3.wav	2.0	1	2.391
127.5529	7.6370000000000005	G_P	2.0	n/a	n/a	2.0	4.47	Gram/Gram_run-02/stereo_2MP73U1.wav	2.0	1	2.4429999999999996
135.1929	7.305	G_C	1.0	n/a	n/a	1.0	0.374	Gram/Gram_run-02/CoM02l.wav	1.0	1	1.124
142.4994	5.983	G_G	1.0	n/a	n/a	1.0	3.188	Gram/Gram_run-02/stereo_1MP42G3.wav	1.0	1	2.266
148.4871	5.36	G_P	2.0	n/a	n/a	2.0	3.46	Gram/Gram_run-02/stereo_1MP32U2.wav	2.0	1	2.4539999999999997
153.8576	7.145	G_C	1.0	n/a	n/a	1.0	1.023	Gram/Gram_run-02/CoM09e.wav	1.0	1	1.773
161.0128	6.28	G_F	2.0	n/a	n/a	2.0	3.673	Gram/Gram_run-02/stereo_1MF19U4.wav	2.0	1	2.987
167.3005	6.63	G_C	1.0	n/a	n/a	1.0	2.281	Gram/Gram_run-02/CoM07b.wav	1.0	1	3.031
173.9386	7.195	G_G	1.0	n/a	n/a	1.0	3.8789999999999996	Gram/Gram_run-02/stereo_2MP89G3.wav	1.0	1	2.541
181.1437	5.1739999999999995	G_F	2.0	n/a	n/a	2.0	3.64	Gram/Gram_run-02/stereo_1MF07U2.wav	2.0	1	4.390000000000001
186.3308	6.944	G_P	2.0	n/a	n/a	2.0	3.472	Gram/Gram_run-02/stereo_2MP88U3.wav	2.0	1	2.4290000000000003
193.2858	6.0889999999999995	G_G	1.0	n/a	n/a	1.0	3.3819999999999997	Gram/Gram_run-02/stereo_2MF66G3.wav	1.0	1	2.0080000000000005
199.3896	6.5	G_C	1.0	n/a	n/a	1.0	0.359	Gram/Gram_run-02/CoM01e.wav	1.0	1	1.109
205.8946	6.43	G_P	2.0	n/a	n/a	2.0	4.072	Gram/Gram_run-02/stereo_1MP43U4.wav	2.0	1	1.79
212.3325	6.19	G_G	1.0	n/a	n/a	1.0	2.375	Gram/Gram_run-02/stereo_2MP84G2.wav	1.0	1	1.443
218.537	7.114	G_G	1.0	n/a	n/a	1.0	4.721	Gram/Gram_run-02/stereo_1MP29G1.wav	1.0	1	2.533
225.6587	6.731	G_F	2.0	n/a	n/a	2.0	5.542000000000001	Gram/Gram_run-02/stereo_2MF53U1.wav	2.0	1	4.971000000000002
232.3969	6.015	G_C	1.0	n/a	n/a	1.0	1.286	Gram/Gram_run-02/CoM02d.wav	1.0	1	2.036
238.4179	7.17	G_G	1.0	n/a	n/a	1.0	4.961	Gram/Gram_run-02/stereo_2MF71G4.wav	1.0	1	2.7119999999999997
245.5909	5.33	G_C	1.0	n/a	n/a	1.0	3.588	Gram/Gram_run-02/CoM06b.wav	1.0	1	4.338
250.9316	6.9689999999999985	G_F	2.0	n/a	n/a	2.0	3.487	Gram/Gram_run-02/stereo_2MF54U1.wav	2.0	1	2.9170000000000003
257.9045	7.6	G_G	1.0	n/a	n/a	1.0	4.763	Gram/Gram_run-02/stereo_2MF49G1.wav	1.0	1	2.574
