onset	duration	trial_type	correct	window1_response	window1_RT	window2_response	window2_RT	stim_file	calculated_response	calculated_accuracy	calculated_RT
1.0924	3.5	P_R	1.0	n/a	n/a	1.0	1.495	Phon/Phon_run-02/stereo_PR20.wav	1.0	1	1.245
4.595	4.235	P_O	1.0	n/a	n/a	1.0	1.425	Phon/Phon_run-02/PC034.wav	1.0	1	1.175
8.8325	3.375	P_R	1.0	n/a	n/a	1.0	1.339	Phon/Phon_run-02/stereo_PR13.wav	1.0	1	1.089
12.2183	3.474	P_C	1.0	n/a	n/a	1.0	0.451	Phon/Phon_run-02/ContS12.wav	1.0	1	1.201
15.7041	3.875	P_U	2.0	n/a	n/a	2.0	1.401	Phon/Phon_run-02/PM025.wav	2.0	1	1.151
19.5903	3.726	P_R	1.0	n/a	n/a	1.0	1.224	Phon/Phon_run-02/stereo_PR22.wav	1.0	1	0.974
23.3263	3.451	P_O	1.0	n/a	n/a	1.0	1.6680000000000001	Phon/Phon_run-02/PC014.wav	1.0	1	1.418
26.7799	3.779	P_C	1.0	n/a	n/a	1.0	0.381	Phon/Phon_run-02/ContS02.wav	1.0	1	1.131
30.566	3.821	P_U	2.0	n/a	n/a	2.0	1.844	Phon/Phon_run-02/stereo_PU18.wav	2.0	1	1.594
34.402	3.49	P_U	2.0	n/a	n/a	1.0	1.699	Phon/Phon_run-02/stereo_PU12.wav	1.0	0	1.449
37.9046	4.38	P_C	1.0	n/a	n/a	1.0	0.244	Phon/Phon_run-02/ContS32.wav	1.0	1	0.994
42.291000000000004	4.0969999999999995	P_R	1.0	n/a	n/a	n/a	n/a	Phon/Phon_run-02/stereo_PR16.wav	n/a	0	n/a
46.394	3.5	P_O	1.0	n/a	n/a	1.0	1.41	Phon/Phon_run-02/PC022.wav	1.0	1	1.16
49.8966	4.0760000000000005	P_R	1.0	n/a	n/a	1.0	1.345	Phon/Phon_run-02/stereo_PR08.wav	1.0	1	1.095
53.983000000000004	3.5	P_O	1.0	n/a	n/a	2.0	2.18	Phon/Phon_run-02/PC028.wav	2.0	0	1.9300000000000002
57.4856	3.5	P_U	2.0	n/a	n/a	1.0	1.7369999999999999	Phon/Phon_run-02/stereo_PU27.wav	1.0	0	1.487
60.9881	3.819	P_C	1.0	n/a	n/a	1.0	0.207	Phon/Phon_run-02/ContS06.wav	1.0	1	0.957
64.8086	4.25	P_O	1.0	n/a	n/a	1.0	1.554	Phon/Phon_run-02/PC031.wav	1.0	1	1.304
69.062	3.662	P_C	1.0	n/a	n/a	1.0	0.1	Phon/Phon_run-02/ContS36.wav	1.0	1	0.85
72.7312	3.823	P_O	1.0	n/a	n/a	n/a	n/a	Phon/Phon_run-02/PC023.wav	n/a	0	n/a
76.5674	4.323	P_C	1.0	n/a	n/a	1.0	0.308	Phon/Phon_run-02/ContS24.wav	1.0	1	1.058
80.9038	3.865	P_U	2.0	n/a	n/a	2.0	1.261	Phon/Phon_run-02/PM004.wav	2.0	1	1.011
84.7733	3.875	P_O	1.0	n/a	n/a	1.0	1.886	Phon/Phon_run-02/PC007.wav	1.0	1	1.636
88.6594	4.25	P_U	2.0	n/a	n/a	2.0	1.445	Phon/Phon_run-02/PM011.wav	2.0	1	1.195
92.9126	4.362	P_C	1.0	n/a	n/a	1.0	0.222	Phon/Phon_run-02/ContS30.wav	1.0	1	0.972
97.2825	3.875	P_O	1.0	n/a	n/a	1.0	1.712	Phon/Phon_run-02/PC030.wav	1.0	1	1.462
101.1687	3.3360000000000003	P_R	1.0	n/a	n/a	n/a	n/a	Phon/Phon_run-02/stereo_PR05.wav	n/a	0	n/a
104.5077	4.113	P_U	2.0	n/a	n/a	2.0	1.7730000000000001	Phon/Phon_run-02/stereo_PU01.wav	2.0	1	1.523
108.6273	4.1739999999999995	P_U	2.0	n/a	n/a	2.0	2.169	Phon/Phon_run-02/PM029.wav	2.0	1	1.919
112.8137	3.4539999999999997	P_C	1.0	n/a	n/a	1.0	0.331	Phon/Phon_run-02/ContS08.wav	1.0	1	1.081
116.2828	3.446	P_R	1.0	n/a	n/a	n/a	n/a	Phon/Phon_run-02/stereo_PR30.wav	n/a	0	n/a
119.7352	3.85	P_R	1.0	n/a	n/a	1.0	1.163	Phon/Phon_run-02/stereo_PR07.wav	1.0	1	0.913
123.588	3.438	P_U	2.0	n/a	n/a	n/a	n/a	Phon/Phon_run-02/stereo_PU02.wav	n/a	0	n/a
127.0406	3.915	P_C	1.0	2.0	0.102	1.0	0.353	Phon/Phon_run-02/ContS20.wav	2.0	0	0.102
130.9601	3.487	P_U	2.0	n/a	n/a	1.0	1.419	Phon/Phon_run-02/PM021.wav	1.0	0	1.169
134.46200000000002	3.965	P_C	1.0	n/a	n/a	1.0	0.418	Phon/Phon_run-02/ContS26.wav	1.0	1	1.168
138.4315	3.792	P_R	1.0	n/a	n/a	1.0	1.6469999999999998	Phon/Phon_run-02/stereo_PR31.wav	1.0	1	1.3969999999999998
142.2343	4.135	P_O	1.0	n/a	n/a	2.0	1.399	Phon/Phon_run-02/PC024.wav	2.0	0	1.149
146.3717	3.875	P_U	2.0	n/a	n/a	2.0	1.689	Phon/Phon_run-02/PM010.wav	2.0	1	1.439
150.2579	3.875	P_O	1.0	n/a	n/a	2.0	1.9040000000000001	Phon/Phon_run-02/PC015.wav	2.0	0	1.654
154.144	4.245	P_C	1.0	n/a	n/a	1.0	0.083	Phon/Phon_run-02/ContS14.wav	1.0	1	0.833
158.3971	3.854	P_R	1.0	n/a	n/a	1.0	1.5130000000000001	Phon/Phon_run-02/stereo_PR14.wav	1.0	1	1.263
162.2662	4.239	P_O	1.0	n/a	n/a	1.0	2.2159999999999997	Phon/Phon_run-02/PC008.wav	1.0	1	1.9660000000000002
166.5192	4.25	P_U	2.0	n/a	n/a	2.0	1.815	Phon/Phon_run-02/stereo_PU11.wav	2.0	1	1.565
170.7726	3.523	P_C	1.0	n/a	n/a	1.0	0.175	Phon/Phon_run-02/ContS18.wav	1.0	1	0.925
174.3085	3.429	P_O	1.0	n/a	n/a	n/a	n/a	Phon/Phon_run-02/PC006.wav	n/a	0	n/a
177.7443	4.18	P_R	1.0	n/a	n/a	1.0	2.44	Phon/Phon_run-02/stereo_PR32.wav	1.0	1	2.19
181.9307	4.104	P_R	1.0	n/a	n/a	1.0	1.357	Phon/Phon_run-02/stereo_PR24.wav	1.0	1	1.107
