onset	duration	trial_type	correct	window1_response	window1_RT	window2_response	window2_RT	stim_file	calculated_response	calculated_accuracy	calculated_RT
1.0907	4.2010000000000005	S_U	2.0	n/a	n/a	2.0	1.629	Sem/Sem_run-02/stereo_1SU33A0.wav	2.0	1	1.379
5.2947	3.486	S_U	2.0	n/a	n/a	2.0	1.454	Sem/Sem_run-02/stereo_2SU85A0.wav	2.0	1	1.204
8.7817	3.8539999999999996	S_H	1.0	n/a	n/a	1.0	1.332	Sem/Sem_run-02/stereo_2SH50A0.wav	1.0	1	1.082
12.6503	3.454	S_C	1.0	n/a	n/a	1.0	0.276	Sem/Sem_run-02/ContS08.wav	1.0	1	1.026
16.1195	4.33	S_H	1.0	n/a	n/a	1.0	1.142	Sem/Sem_run-02/stereo_1SH10A0.wav	1.0	1	0.8919999999999999
20.4559	3.872	S_L	1.0	n/a	n/a	1.0	2.017	Sem/Sem_run-02/stereo_2SL61A0.wav	1.0	1	1.767
24.3421	3.885	S_L	1.0	n/a	n/a	1.0	1.709	Sem/Sem_run-02/stereo_1SL23A0.wav	1.0	1	1.459
28.2293	4.2	S_U	2.0	n/a	n/a	2.0	1.2919999999999998	Sem/Sem_run-02/stereo_1SU42A0.wav	2.0	1	1.0419999999999998
32.4326	3.321	S_L	1.0	n/a	n/a	1.0	1.662	Sem/Sem_run-02/stereo_1SL16A0.wav	1.0	1	1.412
35.7684	3.59	S_C	1.0	n/a	n/a	1.0	1.362	Sem/Sem_run-02/ContS26.wav	1.0	1	2.112
39.3711	4.4	S_H	1.0	n/a	n/a	1.0	1.415	Sem/Sem_run-02/stereo_2SH60A0.wav	1.0	1	1.165
43.7745	4.311	S_L	1.0	n/a	n/a	2.0	1.43	Sem/Sem_run-02/stereo_2SL75A0.wav	2.0	0	1.18
48.0943	3.912	S_H	1.0	n/a	n/a	1.0	1.175	Sem/Sem_run-02/stereo_2SH59A0.wav	1.0	1	0.925
52.0138	4.4	S_U	2.0	n/a	n/a	2.0	1.607	Sem/Sem_run-02/stereo_2SU84A0.wav	2.0	1	1.357
56.4171	3.4210000000000003	S_U	2.0	n/a	n/a	1.0	1.517	Sem/Sem_run-02/stereo_1SU43A0.wav	1.0	0	1.267
59.8529	3.8539999999999996	S_C	1.0	n/a	n/a	2.0	0.523	Sem/Sem_run-02/ContS02.wav	2.0	0	1.273
63.7217	4.37	S_L	1.0	n/a	n/a	1.0	1.7519999999999998	Sem/Sem_run-02/stereo_1SL19A0.wav	1.0	1	1.5019999999999998
68.0927	3.862	S_L	1.0	n/a	n/a	1.0	2.247	Sem/Sem_run-02/stereo_1SL18A0.wav	1.0	1	1.9969999999999999
71.9622	4.462	S_C	1.0	n/a	n/a	1.0	0.868	Sem/Sem_run-02/ContS22.wav	1.0	1	1.618
76.4321	3.406	S_L	1.0	n/a	n/a	1.0	1.332	Sem/Sem_run-02/stereo_1SL21A0.wav	1.0	1	1.082
79.8515	3.355	S_U	2.0	n/a	n/a	2.0	1.6780000000000002	Sem/Sem_run-02/stereo_1SU36A0.wav	2.0	1	1.4280000000000002
83.2206	4.324	S_C	1.0	n/a	n/a	1.0	1.264	Sem/Sem_run-02/ContS04.wav	1.0	1	2.0140000000000002
87.5571	4.253	S_L	1.0	n/a	n/a	1.0	2.323	Sem/Sem_run-02/stereo_1SL24A0.wav	1.0	1	2.073
91.8112	3.839	S_L	1.0	n/a	n/a	1.0	1.366	Sem/Sem_run-02/stereo_2SL70A0.wav	1.0	1	1.116
95.664	4.395	S_C	1.0	n/a	n/a	1.0	0.4920000000000001	Sem/Sem_run-02/ContS14.wav	1.0	1	1.242
100.0673	3.8739999999999997	S_H	1.0	n/a	n/a	1.0	1.039	Sem/Sem_run-02/stereo_1SH09A0.wav	1.0	1	0.7889999999999999
103.9534	3.75	S_U	2.0	n/a	n/a	2.0	1.117	Sem/Sem_run-02/stereo_1SU32A0.wav	2.0	1	0.867
107.7063	3.641	S_C	1.0	n/a	n/a	1.0	1.134	Sem/Sem_run-02/ContS34.wav	1.0	1	1.884
111.359	3.338	S_U	2.0	n/a	n/a	2.0	1.82	Sem/Sem_run-02/stereo_1SU31A0.wav	2.0	1	1.57
114.7114	3.45	S_L	1.0	n/a	n/a	2.0	1.835	Sem/Sem_run-02/stereo_2SL68A0.wav	2.0	0	1.585
118.164	3.8510000000000004	S_H	1.0	n/a	n/a	1.0	1.094	Sem/Sem_run-02/stereo_1SH14A0.wav	1.0	1	0.8440000000000001
122.0178	3.459	S_H	1.0	n/a	n/a	1.0	1.531	Sem/Sem_run-02/stereo_1SH01A0.wav	1.0	1	1.281
125.4869	3.512	S_C	1.0	n/a	n/a	1.0	0.267	Sem/Sem_run-02/ContS16.wav	1.0	1	1.017
129.0062	3.489	S_H	1.0	n/a	n/a	1.0	1.45	Sem/Sem_run-02/stereo_1SH12A0.wav	1.0	1	1.2
132.5087	3.8489999999999998	S_U	2.0	n/a	n/a	1.0	1.715	Sem/Sem_run-02/stereo_2SU86A0.wav	1.0	0	1.465
136.3616	3.46	S_L	1.0	n/a	n/a	1.0	1.45	Sem/Sem_run-02/stereo_1SL28A0.wav	1.0	1	1.2
139.8308	4.53	S_C	1.0	n/a	n/a	1.0	0.318	Sem/Sem_run-02/ContS32.wav	1.0	1	1.068
144.3674	4.351	S_H	1.0	n/a	n/a	1.0	1.665	Sem/Sem_run-02/stereo_2SH52A0.wav	1.0	1	1.415
148.7216	3.48	S_H	1.0	n/a	n/a	1.0	1.794	Sem/Sem_run-02/stereo_2SH47A0.wav	1.0	1	1.544
152.2075	3.3	S_H	1.0	n/a	n/a	1.0	1.4469999999999998	Sem/Sem_run-02/stereo_2SH53A0.wav	1.0	1	1.1969999999999998
155.5099	3.847	S_U	2.0	n/a	n/a	2.0	1.279	Sem/Sem_run-02/stereo_1SU39A0.wav	2.0	1	1.029
159.3627	3.923	S_C	1.0	n/a	n/a	1.0	1.068	Sem/Sem_run-02/ContS10.wav	1.0	1	1.818
163.2989	3.7510000000000003	S_U	2.0	n/a	n/a	1.0	1.713	Sem/Sem_run-02/stereo_2SU80A0.wav	1.0	0	1.463
167.0527	4.2	S_L	1.0	n/a	n/a	2.0	1.727	Sem/Sem_run-02/stereo_2SL66A0.wav	2.0	0	1.477
171.2559	3.99	S_C	1.0	n/a	n/a	1.0	0.47	Sem/Sem_run-02/ContS20.wav	1.0	1	1.22
175.2588	4.041	S_C	1.0	n/a	n/a	1.0	1.529	Sem/Sem_run-02/ContS28.wav	1.0	1	2.279
179.3117	4.2	S_U	2.0	n/a	n/a	2.0	1.471	Sem/Sem_run-02/stereo_2SU89A0.wav	2.0	1	1.221
183.5149	4.368	S_H	1.0	n/a	n/a	1.0	1.222	Sem/Sem_run-02/stereo_2SH46A0.wav	1.0	1	0.972
