onset	duration	trial_type	correct	window1_response	window1_RT	window2_response	window2_RT	stim_file	calculated_response	calculated_accuracy	calculated_RT
1.101	6.895	G_F	2.0	n/a	n/a	2.0	4.082	Gram/Gram_run-01/stereo_2MF57U2.wav	2.0	1	4.832
8.006	7.175	G_F	2.0	n/a	n/a	2.0	3.128	Gram/Gram_run-01/stereo_1MF15U3.wav	2.0	1	3.878
15.195	6.5070000000000014	G_G	1.0	n/a	n/a	1.0	3.677	Gram/Gram_run-01/stereo_1MF11G2.wav	1.0	1	2.497
21.717	6.505	G_C	1.0	n/a	n/a	1.0	0.835	Gram/Gram_run-01/CoM09d.wav	1.0	1	1.585
28.222	6.9479999999999995	G_F	2.0	n/a	n/a	1.0	5.377999999999999	Gram/Gram_run-01/stereo_2MF68U4.wav	1.0	0	4.651999999999999
35.178000000000004	5.541	G_P	2.0	n/a	n/a	2.0	3.675	Gram/Gram_run-01/stereo_1MP37U3.wav	2.0	1	2.6399999999999997
40.732	5.9479999999999995	G_G	1.0	n/a	n/a	1.0	4.133	Gram/Gram_run-01/stereo_2MF50G1.wav	1.0	1	2.0380000000000003
46.687	6.013	G_F	2.0	n/a	n/a	2.0	4.021	Gram/Gram_run-01/stereo_1MF05U1.wav	2.0	1	3.419
52.709	7.87	G_C	1.0	n/a	n/a	1.0	0.56	Gram/Gram_run-01/CoM01l.wav	1.0	1	1.31
60.582	6.4979999999999976	G_G	1.0	n/a	n/a	1.0	4.7139999999999995	Gram/Gram_run-01/stereo_1MF23G4.wav	1.0	1	2.5330000000000004
67.087	6.184	G_F	2.0	n/a	n/a	2.0	3.3560000000000003	Gram/Gram_run-01/stereo_2MF55U2.wav	2.0	1	4.106
73.275	6.83	G_C	1.0	n/a	n/a	1.0	0.608	Gram/Gram_run-01/CoM10l.wav	1.0	1	1.358
80.11399999999998	7.505	G_G	1.0	n/a	n/a	1.0	5.073	Gram/Gram_run-01/stereo_2MP96G4.wav	1.0	1	2.678000000000001
87.62	7.1370000000000005	G_G	1.0	n/a	n/a	1.0	5.781000000000001	Gram/Gram_run-01/stereo_1MP47G4.wav	1.0	1	3.314000000000002
94.759	6.694	G_F	2.0	n/a	n/a	2.0	3.44	Gram/Gram_run-01/stereo_2MF61U3.wav	2.0	1	4.1899999999999995
101.465	5.39	G_C	1.0	n/a	n/a	1.0	1.432	Gram/Gram_run-01/CoM01d.wav	1.0	1	2.182
106.869	6.5760000000000005	G_G	1.0	n/a	n/a	1.0	4.164	Gram/Gram_run-01/stereo_1MP35G2.wav	1.0	1	3.1599999999999997
113.458	5.3389999999999995	G_F	2.0	n/a	n/a	n/a	n/a	Gram/Gram_run-01/stereo_2MF69U4.wav	n/a	0	n/a
118.812	7.94	G_C	1.0	2.0	0.064	1.0	1.704	Gram/Gram_run-01/CoM08l.wav	2.0	0	0.064
126.752	6.006	G_P	2.0	n/a	n/a	2.0	4.178999999999999	Gram/Gram_run-01/stereo_1MP26U1.wav	2.0	1	2.2029999999999985
132.773	8.422	G_F	2.0	n/a	n/a	2.0	4.888999999999999	Gram/Gram_run-01/stereo_1MF06U1.wav	2.0	1	4.293999999999998
141.197	7.885	G_P	2.0	n/a	n/a	2.0	3.925	Gram/Gram_run-01/stereo_2MP81U2.wav	2.0	1	3.0399999999999996
149.08700000000005	6.1270000000000024	G_G	1.0	n/a	n/a	1.0	4.644	Gram/Gram_run-01/stereo_2MP83G2.wav	1.0	1	3.5840000000000005
155.225	5.765	G_C	1.0	n/a	n/a	1.0	1.287	Gram/Gram_run-01/CoM02b.wav	1.0	1	2.037
160.996	6.706	G_P	2.0	n/a	n/a	2.0	4.638999999999999	Gram/Gram_run-01/stereo_2MP93U4.wav	2.0	1	2.238999999999999
167.702	6.61	G_P	2.0	n/a	n/a	2.0	4.279	Gram/Gram_run-01/stereo_1MP28U1.wav	2.0	1	2.1640000000000006
174.324	6.63	G_C	1.0	n/a	n/a	1.0	0.932	Gram/Gram_run-01/CoM04b.wav	1.0	1	1.682
180.962	5.665	G_P	2.0	n/a	n/a	n/a	n/a	Gram/Gram_run-01/stereo_1MP27U1.wav	n/a	0	n/a
186.634	7.55	G_G	1.0	n/a	n/a	1.0	4.445	Gram/Gram_run-01/stereo_2MP77G1.wav	1.0	1	2.346
194.19	6.51	G_C	1.0	n/a	n/a	1.0	0.988	Gram/Gram_run-01/CoM03e.wav	1.0	1	1.738
200.712	6.98	G_P	2.0	n/a	n/a	2.0	4.397	Gram/Gram_run-01/stereo_2MP92U4.wav	2.0	1	2.048
207.701	7.047999999999999	G_G	1.0	n/a	n/a	1.0	3.8480000000000003	Gram/Gram_run-01/stereo_1MF12G2.wav	1.0	1	2.814
214.75599999999997	5.574	G_F	2.0	n/a	n/a	n/a	n/a	Gram/Gram_run-01/stereo_1MF04U1.wav	n/a	0	n/a
220.344	5.67	G_C	1.0	1.0	0.419	1.0	0.8809999999999999	Gram/Gram_run-01/CoM07d.wav	1.0	1	0.419
226.015	6.6160000000000005	G_P	2.0	n/a	n/a	2.0	4.737	Gram/Gram_run-01/stereo_1MP39U3.wav	2.0	1	3.733
232.637	5.695	G_P	2.0	n/a	n/a	2.0	3.074	Gram/Gram_run-01/stereo_2MP82U2.wav	2.0	1	2.153
238.342	6.6270000000000024	G_F	2.0	n/a	n/a	2.0	2.947	Gram/Gram_run-01/stereo_1MF13U3.wav	2.0	1	3.697
244.981	7.145	G_C	1.0	n/a	n/a	1.0	2.5780000000000003	Gram/Gram_run-01/CoM08e.wav	1.0	1	3.3280000000000003
252.136	6.805	G_G	1.0	n/a	n/a	1.0	5.507999999999999	Gram/Gram_run-01/stereo_1MP41G3.wav	1.0	1	4.201999999999999
258.942	7.519	G_P	2.0	n/a	n/a	2.0	3.31	Gram/Gram_run-01/stereo_1MP38U3.wav	2.0	1	2.0709999999999997
