onset	duration	trial_type	correct	window1_response	window1_RT	window2_response	window2_RT	stim_file	calculated_response	calculated_accuracy	calculated_RT
1.084	6.343	SP_S	1.0	n/a	n/a	1.0	3.535	Plaus/Plaus_run-02/stereo_PC37.wav	1.0	1	1.3739999999999997
7.439	6.345	SP_W	1.0	n/a	n/a	2.0	4.681	Plaus/Plaus_run-02/stereo_PW74.wav	2.0	0	2.712
13.794	6.095	SP_C	1.0	1.0	0.6459999999999999	1.0	1.639	Plaus/Plaus_run-02/CoM10d.wav	1.0	1	0.6459999999999999
19.898	6.401	SP_I	2.0	n/a	n/a	2.0	2.737	Plaus/Plaus_run-02/stereo_PI56.wav	2.0	1	1.8699999999999999
26.303	6.407	SP_W	1.0	n/a	n/a	1.0	3.611	Plaus/Plaus_run-02/stereo_PW39.wav	1.0	1	1.584
32.725	6.8420000000000005	SP_I	2.0	n/a	n/a	2.0	3.877	Plaus/Plaus_run-02/stereo_PI44.wav	2.0	1	1.6799999999999997
39.58	7.7	SP_C	1.0	1.0	0.613	1.0	1.067	Plaus/Plaus_run-02/CoM07e.wav	1.0	1	0.613
47.286	5.756	SP_S	1.0	n/a	n/a	1.0	3.1910000000000003	Plaus/Plaus_run-02/stereo_PC03.wav	1.0	1	2.2490000000000006
53.056999999999995	7.372000000000001	SP_S	1.0	n/a	n/a	1.0	3.647	Plaus/Plaus_run-02/stereo_PC82.wav	1.0	1	1.5919999999999996
60.43	6.095	SP_C	1.0	1.0	0.603	1.0	1.6669999999999998	Plaus/Plaus_run-02/CoM04d.wav	1.0	1	0.603
66.53399999999999	6.303	SP_I	2.0	n/a	n/a	2.0	2.739	Plaus/Plaus_run-02/stereo_PI23.wav	2.0	1	1.7549999999999997
72.839	5.655	SP_I	2.0	n/a	n/a	2.0	3.1319999999999997	Plaus/Plaus_run-02/stereo_PI22.wav	2.0	1	2.213
78.494	6.85	SP_C	1.0	1.0	0.525	1.0	1.605	Plaus/Plaus_run-02/CoM08d.wav	1.0	1	0.525
85.34899999999998	6.9179999999999975	SP_S	1.0	n/a	n/a	1.0	4.013	Plaus/Plaus_run-02/stereo_PC79.wav	1.0	1	1.7670000000000003
92.271	5.233	SP_I	2.0	n/a	n/a	n/a	n/a	Plaus/Plaus_run-02/stereo_PI21.wav	n/a	0	n/a
97.508	6.385	SP_S	1.0	n/a	n/a	1.0	3.16	Plaus/Plaus_run-02/stereo_PC46.wav	1.0	1	2.1980000000000004
103.897	6.282	SP_W	1.0	n/a	n/a	1.0	3.8560000000000003	Plaus/Plaus_run-02/stereo_PW64.wav	1.0	1	2.75
110.185	7.69	SP_C	1.0	1.0	0.675	1.0	1.128	Plaus/Plaus_run-02/CoM04e.wav	1.0	1	0.675
117.891	6.316	SP_I	2.0	n/a	n/a	2.0	4.138999999999999	Plaus/Plaus_run-02/stereo_PI34.wav	2.0	1	1.9819999999999984
124.212	5.47	SP_C	1.0	n/a	n/a	1.0	0.391	Plaus/Plaus_run-02/CoM10b.wav	1.0	1	1.141
129.683	5.636	SP_I	2.0	n/a	n/a	2.0	2.228	Plaus/Plaus_run-02/stereo_PI55.wav	2.0	1	1.389
135.321	7.461	SP_W	1.0	n/a	n/a	1.0	4.008	Plaus/Plaus_run-02/stereo_PW83.wav	1.0	1	2.0040000000000004
142.793	5.48	SP_C	1.0	1.0	0.59	1.0	1.1540000000000001	Plaus/Plaus_run-02/CoM01b.wav	1.0	1	0.59
148.281	6.2120000000000015	SP_W	1.0	n/a	n/a	1.0	2.705	Plaus/Plaus_run-02/stereo_PW08.wav	1.0	1	1.844
154.502	4.694	SP_W	1.0	n/a	n/a	1.0	3.082	Plaus/Plaus_run-02/stereo_PW07.wav	1.0	1	2.207
159.20600000000005	6.197	SP_I	2.0	n/a	n/a	2.0	3.498	Plaus/Plaus_run-02/stereo_PI43.wav	2.0	1	1.4380000000000006
165.41099999999997	6.1979999999999995	SP_S	1.0	n/a	n/a	1.0	2.6710000000000003	Plaus/Plaus_run-02/stereo_PC59.wav	1.0	1	1.6700000000000004
171.61599999999999	7.345	SP_C	1.0	1.0	0.629	1.0	1.399	Plaus/Plaus_run-02/CoM05l.wav	1.0	1	0.629
178.97099999999998	5.2429999999999986	SP_S	1.0	n/a	n/a	1.0	2.7060000000000004	Plaus/Plaus_run-02/stereo_PC02.wav	1.0	1	1.8270000000000004
184.225	6.82	SP_C	1.0	1.0	0.743	1.0	1.361	Plaus/Plaus_run-02/CoM09l.wav	1.0	1	0.743
191.047	7.183	SP_I	2.0	n/a	n/a	2.0	3.548	Plaus/Plaus_run-02/stereo_PI78.wav	2.0	1	1.63
198.236	6.727	SP_W	1.0	n/a	n/a	1.0	3.8080000000000003	Plaus/Plaus_run-02/stereo_PW40.wav	1.0	1	1.5749999999999997
204.975	5.181	SP_S	1.0	n/a	n/a	1.0	3.0010000000000003	Plaus/Plaus_run-02/stereo_PC60.wav	1.0	1	1.7110000000000003
210.162	7.135	SP_W	1.0	n/a	n/a	1.0	3.535	Plaus/Plaus_run-02/stereo_PW73.wav	1.0	1	1.6029999999999998
217.301	6.76	SP_C	1.0	1.0	0.652	1.0	1.213	Plaus/Plaus_run-02/CoM04l.wav	1.0	1	0.652
224.07299999999998	6.682	SP_I	2.0	n/a	n/a	2.0	3.755	Plaus/Plaus_run-02/stereo_PI75.wav	2.0	1	1.759
230.761	6.002999999999999	SP_W	1.0	n/a	n/a	1.0	2.7969999999999997	Plaus/Plaus_run-02/stereo_PW63.wav	1.0	1	1.6500000000000001
236.766	5.0760000000000005	SP_W	1.0	n/a	n/a	1.0	2.795	Plaus/Plaus_run-02/stereo_PW05.wav	1.0	1	2.017
241.85299999999998	6.218	SP_S	1.0	n/a	n/a	1.0	3.557	Plaus/Plaus_run-02/stereo_PC69.wav	1.0	1	1.3200000000000003
248.075	6.569	SP_S	1.0	n/a	n/a	1.0	3.406	Plaus/Plaus_run-02/stereo_PC70.wav	1.0	1	1.5300000000000002
