onset	duration	trial_type	correct	window1_response	window1_RT	window2_response	window2_RT	stim_file	calculated_response	calculated_accuracy	calculated_RT
1.0937	6.343	SP_S	1.0	n/a	n/a	1.0	3.78	Plaus/Plaus_run-02/stereo_PC37.wav	1.0	1	1.618999999999999
7.4482	6.345	SP_W	1.0	n/a	n/a	2.0	3.923	Plaus/Plaus_run-02/stereo_PW74.wav	2.0	0	1.954
13.8029	6.095	SP_C	1.0	n/a	n/a	1.0	1.5330000000000001	Plaus/Plaus_run-02/CoM10d.wav	1.0	1	2.283
19.9073	6.401	SP_I	2.0	n/a	n/a	2.0	2.611	Plaus/Plaus_run-02/stereo_PI56.wav	2.0	1	1.744
26.313000000000002	6.407	SP_W	1.0	n/a	n/a	2.0	3.4739999999999998	Plaus/Plaus_run-02/stereo_PW39.wav	2.0	0	1.4469999999999998
32.7344	6.8420000000000005	SP_I	2.0	n/a	n/a	2.0	3.891	Plaus/Plaus_run-02/stereo_PI44.wav	2.0	1	1.694
39.5893	7.7	SP_C	1.0	n/a	n/a	1.0	0.519	Plaus/Plaus_run-02/CoM07e.wav	1.0	1	1.269
47.295	5.756	SP_S	1.0	n/a	n/a	1.0	2.1590000000000003	Plaus/Plaus_run-02/stereo_PC03.wav	1.0	1	1.2170000000000003
53.0655	7.372000000000001	SP_S	1.0	n/a	n/a	1.0	4.149	Plaus/Plaus_run-02/stereo_PC82.wav	1.0	1	2.094
60.4386	6.095	SP_C	1.0	n/a	n/a	1.0	0.7979999999999999	Plaus/Plaus_run-02/CoM04d.wav	1.0	1	1.548
66.5431	6.303	SP_I	2.0	n/a	n/a	2.0	2.2769999999999997	Plaus/Plaus_run-02/stereo_PI23.wav	2.0	1	1.2930000000000001
72.8488	5.655	SP_I	2.0	n/a	n/a	1.0	2.7239999999999998	Plaus/Plaus_run-02/stereo_PI22.wav	1.0	0	1.805
78.5141	6.85	SP_C	1.0	n/a	n/a	1.0	0.466	Plaus/Plaus_run-02/CoM08d.wav	1.0	1	1.216
85.3693	6.9179999999999975	SP_S	1.0	n/a	n/a	1.0	3.616	Plaus/Plaus_run-02/stereo_PC79.wav	1.0	1	1.3700000000000006
92.2921	5.233	SP_I	2.0	n/a	n/a	2.0	2.949	Plaus/Plaus_run-02/stereo_PI21.wav	2.0	1	1.909
97.5292	6.385	SP_S	1.0	n/a	n/a	1.0	2.725	Plaus/Plaus_run-02/stereo_PC46.wav	1.0	1	1.763
103.9184	6.282	SP_W	1.0	n/a	n/a	1.0	2.647	Plaus/Plaus_run-02/stereo_PW64.wav	1.0	1	1.541
110.2063	7.69	SP_C	1.0	n/a	n/a	1.0	0.48200000000000004	Plaus/Plaus_run-02/CoM04e.wav	1.0	1	1.232
117.9072	6.316	SP_I	2.0	n/a	n/a	2.0	3.898	Plaus/Plaus_run-02/stereo_PI34.wav	2.0	1	1.7409999999999999
124.2283	5.47	SP_C	1.0	n/a	n/a	1.0	0.562	Plaus/Plaus_run-02/CoM10b.wav	1.0	1	1.3119999999999998
129.7001	5.636	SP_I	2.0	n/a	n/a	2.0	2.74	Plaus/Plaus_run-02/stereo_PI55.wav	2.0	1	1.901
135.3387	7.461	SP_W	1.0	n/a	n/a	1.0	4.0569999999999995	Plaus/Plaus_run-02/stereo_PW83.wav	1.0	1	2.053000000000001
142.8107	5.48	SP_C	1.0	n/a	n/a	1.0	3.5660000000000003	Plaus/Plaus_run-02/CoM01b.wav	1.0	1	4.316000000000002
148.298	6.2120000000000015	SP_W	1.0	n/a	n/a	1.0	3.662	Plaus/Plaus_run-02/stereo_PW08.wav	1.0	1	2.801
154.5192	4.694	SP_W	1.0	n/a	n/a	1.0	3.008	Plaus/Plaus_run-02/stereo_PW07.wav	1.0	1	2.133
159.2226	6.197	SP_I	2.0	n/a	n/a	2.0	3.9219999999999997	Plaus/Plaus_run-02/stereo_PI43.wav	2.0	1	1.8620000000000003
165.4272	6.1979999999999995	SP_S	1.0	n/a	n/a	2.0	2.461	Plaus/Plaus_run-02/stereo_PC59.wav	2.0	0	1.46
171.6318	7.345	SP_C	1.0	n/a	n/a	1.0	0.136	Plaus/Plaus_run-02/CoM05l.wav	1.0	1	0.8859999999999999
178.9871	5.2429999999999986	SP_S	1.0	n/a	n/a	1.0	2.278	Plaus/Plaus_run-02/stereo_PC02.wav	1.0	1	1.399
184.2409	6.82	SP_C	1.0	n/a	n/a	1.0	1.0859999999999999	Plaus/Plaus_run-02/CoM09l.wav	1.0	1	1.8359999999999999
191.0636	7.183	SP_I	2.0	n/a	n/a	2.0	3.248	Plaus/Plaus_run-02/stereo_PI78.wav	2.0	1	1.33
198.2522	6.727	SP_W	1.0	n/a	n/a	1.0	3.759	Plaus/Plaus_run-02/stereo_PW40.wav	1.0	1	1.5259999999999998
204.9904	5.181	SP_S	1.0	n/a	n/a	1.0	2.7289999999999996	Plaus/Plaus_run-02/stereo_PC60.wav	1.0	1	1.439
210.1775	7.135	SP_W	1.0	n/a	n/a	1.0	3.1839999999999997	Plaus/Plaus_run-02/stereo_PW73.wav	1.0	1	1.2519999999999998
217.3172	6.76	SP_C	1.0	n/a	n/a	1.0	1.133	Plaus/Plaus_run-02/CoM04l.wav	1.0	1	1.883
224.0887	6.682	SP_I	2.0	n/a	n/a	2.0	3.9539999999999997	Plaus/Plaus_run-02/stereo_PI75.wav	2.0	1	1.958
230.7769	6.002999999999999	SP_W	1.0	n/a	n/a	1.0	4.527	Plaus/Plaus_run-02/stereo_PW63.wav	1.0	1	3.38
236.7825	5.0760000000000005	SP_W	1.0	n/a	n/a	2.0	2.093	Plaus/Plaus_run-02/stereo_PW05.wav	2.0	0	1.315
241.8694	6.218	SP_S	1.0	n/a	n/a	1.0	3.63	Plaus/Plaus_run-02/stereo_PC69.wav	1.0	1	1.3930000000000002
248.0918	6.569	SP_S	1.0	n/a	n/a	1.0	3.3569999999999998	Plaus/Plaus_run-02/stereo_PC70.wav	1.0	1	1.4810000000000003
