onset	duration	trial_type	correct	window1_response	window1_RT	window2_response	window2_RT	stim_file	calculated_response	calculated_accuracy	calculated_RT
1.0918	4.2	S_U	2.0	n/a	n/a	2.0	1.64	Sem/Sem_run-01/stereo_1SU41A0.wav	2.0	1	1.39
5.2953	3.596	S_C	1.0	n/a	n/a	1.0	1.367	Sem/Sem_run-01/ContS29.wav	1.0	1	2.117
8.898	3.425	S_U	2.0	n/a	n/a	2.0	1.3	Sem/Sem_run-01/stereo_2SU87A0.wav	2.0	1	1.05
12.3338	3.933	S_H	1.0	n/a	n/a	1.0	1.105	Sem/Sem_run-01/stereo_1SH13A0.wav	1.0	1	0.855
16.2699	4.323	S_H	1.0	n/a	n/a	1.0	1.6880000000000002	Sem/Sem_run-01/stereo_1SH05A0.wav	1.0	1	1.4380000000000002
20.6064	4.073	S_C	1.0	n/a	n/a	1.0	1.34	Sem/Sem_run-01/ContS31.wav	1.0	1	2.09
24.6927	3.869	S_L	1.0	n/a	n/a	1.0	1.797	Sem/Sem_run-01/stereo_2SL63A0.wav	1.0	1	1.547
28.5634	3.75	S_L	1.0	n/a	n/a	1.0	1.07	Sem/Sem_run-01/stereo_1SL29A0.wav	1.0	1	0.8200000000000001
32.3161	4.3660000000000005	S_U	2.0	n/a	n/a	2.0	1.386	Sem/Sem_run-01/stereo_2SU78A0.wav	2.0	1	1.136
36.6859	3.3	S_L	1.0	n/a	n/a	1.0	1.4240000000000002	Sem/Sem_run-01/stereo_1SL17A0.wav	1.0	1	1.1740000000000002
39.9885	3.884	S_C	1.0	n/a	n/a	1.0	1.229	Sem/Sem_run-01/ContS05.wav	1.0	1	1.979
43.8755	4.371	S_H	1.0	n/a	n/a	1.0	1.564	Sem/Sem_run-01/stereo_2SH58A0.wav	1.0	1	1.314
48.2606	4.329	S_L	1.0	n/a	n/a	1.0	1.965	Sem/Sem_run-01/stereo_2SL72A0.wav	1.0	1	1.715
52.5971	3.94	S_H	1.0	n/a	n/a	1.0	1.375	Sem/Sem_run-01/stereo_2SH57A0.wav	1.0	1	1.125
56.55	4.2	S_U	2.0	n/a	n/a	2.0	1.624	Sem/Sem_run-01/stereo_2SU83A0.wav	2.0	1	1.374
60.753	3.474	S_C	1.0	n/a	n/a	1.0	1.2770000000000001	Sem/Sem_run-01/ContS11.wav	1.0	1	2.027
64.2389	4.271	S_L	1.0	n/a	n/a	1.0	2.279	Sem/Sem_run-01/stereo_1SL26A0.wav	1.0	1	2.029
68.5248	3.91	S_L	1.0	n/a	n/a	1.0	1.895	Sem/Sem_run-01/stereo_1SL25A0.wav	1.0	1	1.645
72.4443	4.479	S_C	1.0	n/a	n/a	1.0	1.072	Sem/Sem_run-01/ContS25.wav	1.0	1	1.822
76.9309	3.378	S_U	2.0	n/a	n/a	2.0	2.205	Sem/Sem_run-01/stereo_2SU81A0.wav	2.0	1	1.955
80.3167	3.42	S_L	1.0	n/a	n/a	1.0	1.285	Sem/Sem_run-01/stereo_1SL27A0.wav	1.0	1	1.035
83.7479	4.3439999999999985	S_L	1.0	n/a	n/a	1.0	1.391	Sem/Sem_run-01/stereo_1SL30A0.wav	1.0	1	1.141
88.1008	3.909	S_L	1.0	n/a	n/a	1.0	1.158	Sem/Sem_run-01/stereo_2SL71A0.wav	1.0	1	0.9079999999999999
92.0205	3.867	S_H	1.0	n/a	n/a	1.0	1.349	Sem/Sem_run-01/stereo_1SH04A0.wav	1.0	1	1.099
95.8902	3.828	S_U	2.0	n/a	n/a	2.0	1.611	Sem/Sem_run-01/stereo_1SU37A0.wav	2.0	1	1.361
99.7264	4.565	S_C	1.0	n/a	n/a	1.0	1.256	Sem/Sem_run-01/ContS35.wav	1.0	1	2.0060000000000002
104.2964	3.3	S_U	2.0	n/a	n/a	2.0	1.344	Sem/Sem_run-01/stereo_1SU35A0.wav	2.0	1	1.094
107.5986	3.477	S_L	1.0	n/a	n/a	1.0	1.597	Sem/Sem_run-01/stereo_2SL65A0.wav	1.0	1	1.347
111.0845	3.83	S_H	1.0	n/a	n/a	1.0	1.077	Sem/Sem_run-01/stereo_1SH07A0.wav	1.0	1	0.827
114.9207	4.3439999999999985	S_C	1.0	n/a	n/a	1.0	1.212	Sem/Sem_run-01/ContS07.wav	1.0	1	1.962
119.2738	3.5	S_H	1.0	n/a	n/a	2.0	1.686	Sem/Sem_run-01/stereo_1SH03A0.wav	2.0	0	1.436
122.7765	3.919	S_U	2.0	n/a	n/a	1.0	2.122	Sem/Sem_run-01/stereo_1SU45A0.wav	1.0	0	1.8719999999999999
126.697	3.5	S_H	1.0	n/a	n/a	n/a	n/a	Sem/Sem_run-01/stereo_1SH06A0.wav	n/a	0	n/a
130.1996	3.392	S_L	1.0	n/a	n/a	n/a	n/a	Sem/Sem_run-01/stereo_2SL62A0.wav	n/a	0	n/a
133.6021	3.54	S_C	1.0	n/a	n/a	1.0	1.127	Sem/Sem_run-01/ContS19.wav	1.0	1	1.877
137.1547	4.4	S_H	1.0	n/a	n/a	1.0	2.1959999999999997	Sem/Sem_run-01/stereo_1SH15A0.wav	1.0	1	1.9460000000000002
141.5578	3.342	S_H	1.0	n/a	n/a	n/a	n/a	Sem/Sem_run-01/stereo_1SH11A0.wav	n/a	0	n/a
144.9103	3.385	S_U	2.0	n/a	n/a	2.0	1.1520000000000001	Sem/Sem_run-01/stereo_1SU44A0.wav	2.0	1	0.9019999999999999
148.2972	3.4160000000000004	S_H	1.0	n/a	n/a	1.0	1.5119999999999998	Sem/Sem_run-01/stereo_2SH56A0.wav	1.0	1	1.2619999999999998
151.7164	3.849	S_U	2.0	n/a	n/a	2.0	1.844	Sem/Sem_run-01/stereo_2SU82A0.wav	2.0	1	1.594
155.5691	3.934	S_C	1.0	n/a	n/a	1.0	1.301	Sem/Sem_run-01/ContS13.wav	1.0	1	2.051
159.506	4.309	S_L	1.0	n/a	n/a	2.0	1.465	Sem/Sem_run-01/stereo_2SL64A0.wav	2.0	0	1.215
163.8257	4.413	S_C	1.0	n/a	n/a	1.0	1.9480000000000002	Sem/Sem_run-01/ContS17.wav	1.0	1	2.698
168.2456	4.2	S_U	2.0	n/a	n/a	1.0	1.531	Sem/Sem_run-01/stereo_2SU90A0.wav	1.0	0	1.281
172.4489	3.846	S_U	2.0	n/a	n/a	2.0	1.565	Sem/Sem_run-01/stereo_2SU88A0.wav	2.0	1	1.315
176.3017	3.3939999999999997	S_C	1.0	n/a	n/a	1.0	1.1740000000000002	Sem/Sem_run-01/ContS01.wav	1.0	1	1.9240000000000002
179.7041	4.013	S_C	1.0	n/a	n/a	1.0	1.15	Sem/Sem_run-01/ContS23.wav	1.0	1	1.9
183.7237	4.227	S_H	1.0	n/a	n/a	1.0	1.349	Sem/Sem_run-01/stereo_1SH08A0.wav	1.0	1	1.099
