onset	duration	trial_type	correct	window1_response	window1_RT	window2_response	window2_RT	stim_file	calculated_response	calculated_accuracy	calculated_RT
1.0934	7.632999999999999	G_P	2.0	n/a	n/a	2.0	3.906	Gram/Gram_run-02/stereo_1MP45U4.wav	2.0	1	1.775
8.7323	7.315	G_F	2.0	n/a	n/a	2.0	4.591	Gram/Gram_run-02/stereo_1MF20U4.wav	2.0	1	3.881
16.0543	6.2829999999999995	G_P	2.0	n/a	n/a	2.0	3.2510000000000003	Gram/Gram_run-02/stereo_1MP34U2.wav	2.0	1	2.1590000000000003
22.3421	6.195	G_C	1.0	n/a	n/a	1.0	0.40700000000000003	Gram/Gram_run-02/CoM06d.wav	1.0	1	1.157
28.5465	6.221	G_G	1.0	n/a	n/a	1.0	3.886	Gram/Gram_run-02/stereo_1MF02G1.wav	1.0	1	1.846
34.769	5.801	G_F	2.0	n/a	n/a	2.0	3.409	Gram/Gram_run-02/stereo_2MF64U3.wav	2.0	1	4.159
40.5743	6.78	G_C	1.0	n/a	n/a	1.0	1.6469999999999998	Gram/Gram_run-02/CoM07l.wav	1.0	1	2.397
47.3625	6.084	G_F	2.0	n/a	n/a	2.0	3.355	Gram/Gram_run-02/stereo_2MF56U2.wav	2.0	1	4.105
53.4512	7.5470000000000015	G_F	2.0	n/a	n/a	2.0	3.8480000000000003	Gram/Gram_run-02/stereo_1MF21U4.wav	2.0	1	3.0969999999999995
61.0065	6.482	G_G	1.0	n/a	n/a	n/a	n/a	Gram/Gram_run-02/stereo_1MF24G4.wav	n/a	0	n/a
67.4946	6.7810000000000015	G_P	2.0	n/a	n/a	1.0	4.812	Gram/Gram_run-02/stereo_2MP76U1.wav	1.0	0	2.5500000000000007
74.2828	6.643	G_P	2.0	n/a	n/a	2.0	4.099	Gram/Gram_run-02/stereo_2MP80U2.wav	2.0	1	3.1430000000000002
80.9376	7.69	G_C	1.0	n/a	n/a	1.0	0.445	Gram/Gram_run-02/CoM06e.wav	1.0	1	1.195
88.639	6.352	G_F	2.0	n/a	n/a	2.0	3.034	Gram/Gram_run-02/stereo_2MF63U3.wav	2.0	1	3.784
94.9947	5.801	G_G	1.0	n/a	n/a	1.0	3.14	Gram/Gram_run-02/stereo_1MF18G3.wav	1.0	1	1.7570000000000001
100.8001	7.1129999999999995	G_P	2.0	n/a	n/a	2.0	4.315	Gram/Gram_run-02/stereo_1MP44U4.wav	2.0	1	1.9580000000000002
107.9218	6.78	G_C	1.0	n/a	n/a	1.0	0.892	Gram/Gram_run-02/CoM05b.wav	1.0	1	1.642
114.7101	6.7360000000000015	G_F	2.0	n/a	n/a	2.0	2.9960000000000004	Gram/Gram_run-02/stereo_2MF58U2.wav	2.0	1	3.7460000000000004
121.4494	6.0889999999999995	G_P	2.0	n/a	n/a	2.0	3.57	Gram/Gram_run-02/stereo_2MP87U3.wav	2.0	1	2.3579999999999997
127.5529	7.6370000000000005	G_P	2.0	n/a	n/a	2.0	4.12	Gram/Gram_run-02/stereo_2MP73U1.wav	2.0	1	2.093
135.1929	7.305	G_C	1.0	n/a	n/a	1.0	1.214	Gram/Gram_run-02/CoM02l.wav	1.0	1	1.964
142.4994	5.983	G_G	1.0	n/a	n/a	1.0	3.5380000000000003	Gram/Gram_run-02/stereo_1MP42G3.wav	1.0	1	2.616
148.4871	5.36	G_P	2.0	n/a	n/a	2.0	3.847	Gram/Gram_run-02/stereo_1MP32U2.wav	2.0	1	2.8409999999999997
153.8576	7.145	G_C	1.0	n/a	n/a	1.0	0.716	Gram/Gram_run-02/CoM09e.wav	1.0	1	1.466
161.0128	6.28	G_F	2.0	n/a	n/a	n/a	n/a	Gram/Gram_run-02/stereo_1MF19U4.wav	n/a	0	n/a
167.3005	6.63	G_C	1.0	n/a	n/a	1.0	0.318	Gram/Gram_run-02/CoM07b.wav	1.0	1	1.068
173.9386	7.195	G_G	1.0	n/a	n/a	2.0	4.838	Gram/Gram_run-02/stereo_2MP89G3.wav	2.0	0	3.5
181.1437	5.1739999999999995	G_F	2.0	n/a	n/a	2.0	2.5340000000000003	Gram/Gram_run-02/stereo_1MF07U2.wav	2.0	1	3.2840000000000003
186.3308	6.944	G_P	2.0	n/a	n/a	2.0	3.6239999999999997	Gram/Gram_run-02/stereo_2MP88U3.wav	2.0	1	2.5810000000000004
193.2858	6.0889999999999995	G_G	1.0	n/a	n/a	1.0	2.9760000000000004	Gram/Gram_run-02/stereo_2MF66G3.wav	1.0	1	1.6020000000000008
199.3896	6.5	G_C	1.0	n/a	n/a	1.0	0.805	Gram/Gram_run-02/CoM01e.wav	1.0	1	1.5550000000000002
205.8946	6.43	G_P	2.0	n/a	n/a	2.0	4.0969999999999995	Gram/Gram_run-02/stereo_1MP43U4.wav	2.0	1	1.8150000000000004
212.3325	6.19	G_G	1.0	n/a	n/a	1.0	3.1910000000000003	Gram/Gram_run-02/stereo_2MP84G2.wav	1.0	1	2.2590000000000003
218.537	7.114	G_G	1.0	n/a	n/a	1.0	4.315	Gram/Gram_run-02/stereo_1MP29G1.wav	1.0	1	2.1270000000000002
225.6587	6.731	G_F	2.0	n/a	n/a	1.0	4.42	Gram/Gram_run-02/stereo_2MF53U1.wav	1.0	0	3.8489999999999998
232.3969	6.015	G_C	1.0	n/a	n/a	1.0	0.972	Gram/Gram_run-02/CoM02d.wav	1.0	1	1.722
238.4179	7.17	G_G	1.0	n/a	n/a	1.0	4.447	Gram/Gram_run-02/stereo_2MF71G4.wav	1.0	1	2.1979999999999995
245.5909	5.33	G_C	1.0	n/a	n/a	1.0	1.112	Gram/Gram_run-02/CoM06b.wav	1.0	1	1.862
250.9316	6.9689999999999985	G_F	2.0	n/a	n/a	2.0	5.252999999999999	Gram/Gram_run-02/stereo_2MF54U1.wav	2.0	1	4.683
257.9045	7.6	G_G	1.0	n/a	n/a	1.0	3.945	Gram/Gram_run-02/stereo_2MF49G1.wav	1.0	1	1.7559999999999998
