onset	duration	trial_type	correct	window1_response	window1_RT	window2_response	window2_RT	stim_file	calculated_response	calculated_accuracy	calculated_RT
1.0925	3.4539999999999997	P_R	1.0	n/a	n/a	1.0	2.262	Phon/Phon_run-01/stereo_PR01.wav	1.0	1	2.012
4.5615	3.767	P_O	1.0	n/a	n/a	1.0	1.473	Phon/Phon_run-01/PC018.wav	1.0	1	1.223
8.3317	3.391	P_O	1.0	n/a	n/a	2.0	1.885	Phon/Phon_run-01/PC009.wav	2.0	0	1.635
11.7341	4.374	P_C	1.0	n/a	n/a	1.0	0.415	Phon/Phon_run-01/ContS11.wav	1.0	1	1.165
16.1207	3.345	P_U	2.0	n/a	n/a	2.0	1.2790000000000001	Phon/Phon_run-01/PM002.wav	2.0	1	1.029
19.473	4.4510000000000005	P_C	1.0	n/a	n/a	1.0	1.29	Phon/Phon_run-01/ContS21.wav	1.0	1	2.04
23.9275	4.382	P_O	1.0	n/a	n/a	1.0	1.6469999999999998	Phon/Phon_run-01/PC005.wav	1.0	1	1.3969999999999998
28.314	3.3	P_U	2.0	n/a	n/a	n/a	n/a	Phon/Phon_run-01/stereo_PU26.wav	n/a	0	n/a
31.6165	4.324	P_C	1.0	n/a	n/a	1.0	1.124	Phon/Phon_run-01/ContS03.wav	1.0	1	1.874
35.9529	4.378	P_R	1.0	n/a	n/a	2.0	2.053	Phon/Phon_run-01/stereo_PR29.wav	2.0	0	1.803
40.3393	3.4810000000000003	P_U	2.0	n/a	n/a	1.0	1.594	Phon/Phon_run-01/PM020.wav	1.0	0	1.344
43.8252	4.393	P_O	1.0	n/a	n/a	2.0	1.5490000000000002	Phon/Phon_run-01/PC027.wav	2.0	0	1.2990000000000002
48.2284	4.4	P_R	1.0	n/a	n/a	1.0	1.9509999999999998	Phon/Phon_run-01/stereo_PR11.wav	1.0	1	1.701
52.6316	3.884	P_C	1.0	n/a	n/a	1.0	0.54	Phon/Phon_run-01/ContS05.wav	1.0	1	1.29
56.5186	3.891	P_U	2.0	n/a	n/a	2.0	1.431	Phon/Phon_run-01/stereo_PU28.wav	2.0	1	1.181
60.4213	4.4	P_O	1.0	n/a	n/a	2.0	2.483	Phon/Phon_run-01/PC013.wav	2.0	0	2.233
64.8247	3.513	P_C	1.0	n/a	n/a	1.0	1.2690000000000001	Phon/Phon_run-01/ContS17.wav	1.0	1	2.019
68.3439	4.4	P_U	2.0	n/a	n/a	2.0	2.9389999999999996	Phon/Phon_run-01/PM027.wav	2.0	1	2.689
72.7471	4.4	P_O	1.0	n/a	n/a	1.0	2.781	Phon/Phon_run-01/PC021.wav	1.0	1	2.531
77.1504	4.496	P_C	1.0	n/a	n/a	1.0	0.409	Phon/Phon_run-01/ContS29.wav	1.0	1	1.159
81.6536	3.3680000000000003	P_R	1.0	n/a	n/a	n/a	n/a	Phon/Phon_run-01/stereo_PR25.wav	1.0	1	2.4600000000000004
85.0239	3.95	P_O	1.0	1.0	0.092	2.0	1.5390000000000001	Phon/Phon_run-01/PC012.wav	2.0	0	1.289
88.9768	3.95	P_U	2.0	n/a	n/a	2.0	1.959	Phon/Phon_run-01/PM003.wav	2.0	1	1.709
92.9297	3.939	P_O	1.0	n/a	n/a	1.0	2.7510000000000003	Phon/Phon_run-01/PC004.wav	1.0	1	2.5010000000000003
96.8826	3.59	P_C	1.0	n/a	n/a	1.0	0.376	Phon/Phon_run-01/ContS27.wav	1.0	1	1.126
100.4851	4.296	P_U	2.0	n/a	n/a	2.0	1.284	Phon/Phon_run-01/stereo_PU21.wav	2.0	1	1.034
104.7882	3.862	P_R	1.0	n/a	n/a	1.0	1.6740000000000002	Phon/Phon_run-01/stereo_PR26.wav	1.0	1	1.4240000000000002
108.6576	3.95	P_O	1.0	n/a	n/a	2.0	2.129	Phon/Phon_run-01/PC026.wav	2.0	0	1.879
112.6107	3.5	P_O	1.0	n/a	n/a	2.0	1.358	Phon/Phon_run-01/PC025.wav	2.0	0	1.108
116.1133	4.013	P_C	1.0	1.0	0.069	2.0	0.28	Phon/Phon_run-01/ContS23.wav	1.0	1	0.069
120.1329	3.792	P_R	1.0	n/a	n/a	1.0	1.5290000000000001	Phon/Phon_run-01/stereo_PR18.wav	1.0	1	1.279
123.9359	3.346	P_U	2.0	n/a	n/a	2.0	2.033	Phon/Phon_run-01/stereo_PU19.wav	2.0	1	1.783
127.2885	3.891	P_R	1.0	n/a	n/a	1.0	2.003	Phon/Phon_run-01/stereo_PR03.wav	1.0	1	1.7530000000000001
131.1913	3.355	P_O	1.0	n/a	n/a	2.0	1.8769999999999998	Phon/Phon_run-01/PC003.wav	2.0	0	1.627
134.5604	3.951	P_C	1.0	n/a	n/a	2.0	0.33399999999999996	Phon/Phon_run-01/ContS15.wav	2.0	0	1.084
138.5144	3.74	P_U	2.0	1.0	0.013000000000000001	2.0	1.8880000000000001	Phon/Phon_run-01/stereo_PU16.wav	2.0	1	1.638
142.2671	3.95	P_R	1.0	n/a	n/a	1.0	2.334	Phon/Phon_run-01/stereo_PR10.wav	1.0	1	2.084
146.22	3.464	P_C	1.0	n/a	n/a	1.0	1.528	Phon/Phon_run-01/ContS09.wav	1.0	1	2.278
149.6892	4.275	P_R	1.0	n/a	n/a	2.0	1.452	Phon/Phon_run-01/stereo_PR04.wav	2.0	0	1.202
153.9756	3.95	P_U	2.0	n/a	n/a	2.0	1.535	Phon/Phon_run-01/PM023.wav	2.0	1	1.285
157.9284	4.4	P_U	2.0	n/a	n/a	2.0	2.4290000000000003	Phon/Phon_run-01/PM001.wav	2.0	1	2.1790000000000003
162.3319	3.665	P_C	1.0	n/a	n/a	1.0	0.789	Phon/Phon_run-01/ContS35.wav	1.0	1	1.5390000000000001
166.0011	3.463	P_O	1.0	n/a	n/a	2.0	1.8519999999999999	Phon/Phon_run-01/PC017.wav	2.0	0	1.602
169.4703	4.332	P_R	1.0	n/a	n/a	1.0	1.859	Phon/Phon_run-01/stereo_PR19.wav	1.0	1	1.609
173.8067	4.083	P_C	1.0	n/a	n/a	1.0	1.354	Phon/Phon_run-01/ContS33.wav	1.0	1	2.104
177.893	3.5	P_R	1.0	n/a	n/a	2.0	2.281	Phon/Phon_run-01/stereo_PR17.wav	2.0	0	2.031
181.3956	4.2669999999999995	P_U	2.0	1.0	0.261	1.0	2.003	Phon/Phon_run-01/PM009.wav	1.0	0	1.7530000000000001
185.6658	3.4389999999999996	P_R	1.0	n/a	n/a	1.0	1.719	Phon/Phon_run-01/stereo_PR09.wav	1.0	1	1.469
