onset	duration	trial_type	correct	window1_response	window1_RT	window2_response	window2_RT	stim_file	calculated_response	calculated_accuracy	calculated_RT
1.101	6.343	SP_S	1.0	n/a	n/a	1.0	3.76	Plaus/Plaus_run-02/stereo_PC37.wav	1.0	1	1.5989999999999993
7.456	6.345	SP_W	1.0	n/a	n/a	1.0	3.717	Plaus/Plaus_run-02/stereo_PW74.wav	1.0	1	1.7480000000000002
13.811	6.095	SP_C	1.0	n/a	n/a	1.0	0.075	Plaus/Plaus_run-02/CoM10d.wav	1.0	1	0.825
19.916	6.401	SP_I	2.0	n/a	n/a	2.0	3.56	Plaus/Plaus_run-02/stereo_PI56.wav	2.0	1	2.693
26.320999999999998	6.407	SP_W	1.0	n/a	n/a	2.0	4.016	Plaus/Plaus_run-02/stereo_PW39.wav	2.0	0	1.989
32.743	6.8420000000000005	SP_I	2.0	n/a	n/a	2.0	4.256	Plaus/Plaus_run-02/stereo_PI44.wav	2.0	1	2.059
39.599000000000004	7.7	SP_C	1.0	1.0	0.68	1.0	0.7879999999999999	Plaus/Plaus_run-02/CoM07e.wav	1.0	1	0.68
47.305	5.756	SP_S	1.0	n/a	n/a	1.0	2.885	Plaus/Plaus_run-02/stereo_PC03.wav	1.0	1	1.943
53.076	7.372000000000001	SP_S	1.0	n/a	n/a	1.0	3.6260000000000003	Plaus/Plaus_run-02/stereo_PC82.wav	1.0	1	1.5709999999999995
60.449	6.095	SP_C	1.0	n/a	n/a	1.0	0.17300000000000001	Plaus/Plaus_run-02/CoM04d.wav	1.0	1	0.9229999999999999
66.554	6.303	SP_I	2.0	n/a	n/a	2.0	3.023	Plaus/Plaus_run-02/stereo_PI23.wav	2.0	1	2.039
72.859	5.655	SP_I	2.0	n/a	n/a	2.0	2.968	Plaus/Plaus_run-02/stereo_PI22.wav	2.0	1	2.049
78.514	6.85	SP_C	1.0	n/a	n/a	1.0	0.16	Plaus/Plaus_run-02/CoM08d.wav	1.0	1	0.91
85.369	6.9179999999999975	SP_S	1.0	n/a	n/a	1.0	4.773	Plaus/Plaus_run-02/stereo_PC79.wav	1.0	1	2.5269999999999997
92.292	5.233	SP_I	2.0	n/a	n/a	2.0	3.278	Plaus/Plaus_run-02/stereo_PI21.wav	2.0	1	2.2380000000000004
97.529	6.385	SP_S	1.0	n/a	n/a	1.0	4.81	Plaus/Plaus_run-02/stereo_PC46.wav	1.0	1	3.8480000000000003
103.91799999999999	6.282	SP_W	1.0	n/a	n/a	2.0	2.469	Plaus/Plaus_run-02/stereo_PW64.wav	2.0	0	1.3630000000000002
110.206	7.69	SP_C	1.0	n/a	n/a	1.0	0.10300000000000001	Plaus/Plaus_run-02/CoM04e.wav	1.0	1	0.853
117.896	6.316	SP_I	2.0	n/a	n/a	2.0	3.498	Plaus/Plaus_run-02/stereo_PI34.wav	2.0	1	1.3410000000000002
124.21799999999999	5.47	SP_C	1.0	n/a	n/a	1.0	0.135	Plaus/Plaus_run-02/CoM10b.wav	1.0	1	0.885
129.689	5.636	SP_I	2.0	n/a	n/a	n/a	n/a	Plaus/Plaus_run-02/stereo_PI55.wav	1.0	0	4.218
135.327	7.461	SP_W	1.0	1.0	0.171	1.0	3.697	Plaus/Plaus_run-02/stereo_PW83.wav	1.0	1	1.6930000000000005
142.8	5.48	SP_C	1.0	n/a	n/a	1.0	0.213	Plaus/Plaus_run-02/CoM01b.wav	1.0	1	0.963
148.28799999999995	6.2120000000000015	SP_W	1.0	n/a	n/a	1.0	2.855	Plaus/Plaus_run-02/stereo_PW08.wav	1.0	1	1.994
154.509	4.694	SP_W	1.0	n/a	n/a	1.0	2.798	Plaus/Plaus_run-02/stereo_PW07.wav	1.0	1	1.923
159.213	6.197	SP_I	2.0	n/a	n/a	2.0	4.306	Plaus/Plaus_run-02/stereo_PI43.wav	2.0	1	2.2460000000000004
165.418	6.1979999999999995	SP_S	1.0	n/a	n/a	1.0	2.3040000000000003	Plaus/Plaus_run-02/stereo_PC59.wav	1.0	1	1.3030000000000004
171.623	7.345	SP_C	1.0	n/a	n/a	1.0	0.251	Plaus/Plaus_run-02/CoM05l.wav	1.0	1	1.001
178.979	5.2429999999999986	SP_S	1.0	n/a	n/a	1.0	2.512	Plaus/Plaus_run-02/stereo_PC02.wav	1.0	1	1.633
184.234	6.82	SP_C	1.0	n/a	n/a	1.0	0.153	Plaus/Plaus_run-02/CoM09l.wav	1.0	1	0.903
191.05599999999998	7.183	SP_I	2.0	n/a	n/a	2.0	4.9	Plaus/Plaus_run-02/stereo_PI78.wav	2.0	1	2.9819999999999998
198.245	6.727	SP_W	1.0	n/a	n/a	1.0	4.349	Plaus/Plaus_run-02/stereo_PW40.wav	1.0	1	2.116
204.984	5.181	SP_S	1.0	n/a	n/a	2.0	2.945	Plaus/Plaus_run-02/stereo_PC60.wav	2.0	0	1.6549999999999998
210.172	7.135	SP_W	1.0	n/a	n/a	1.0	4.363	Plaus/Plaus_run-02/stereo_PW73.wav	1.0	1	2.431
217.31099999999998	6.76	SP_C	1.0	1.0	0.7490000000000001	1.0	1.286	Plaus/Plaus_run-02/CoM04l.wav	1.0	1	0.7490000000000001
224.083	6.682	SP_I	2.0	n/a	n/a	2.0	3.412	Plaus/Plaus_run-02/stereo_PI75.wav	2.0	1	1.416
230.77200000000002	6.002999999999999	SP_W	1.0	n/a	n/a	2.0	3.5589999999999997	Plaus/Plaus_run-02/stereo_PW63.wav	2.0	0	2.412
236.77700000000002	5.0760000000000005	SP_W	1.0	n/a	n/a	1.0	2.722	Plaus/Plaus_run-02/stereo_PW05.wav	1.0	1	1.944
241.864	6.218	SP_S	1.0	n/a	n/a	1.0	3.826	Plaus/Plaus_run-02/stereo_PC69.wav	1.0	1	1.5890000000000004
248.08599999999998	6.569	SP_S	1.0	n/a	n/a	1.0	4.185	Plaus/Plaus_run-02/stereo_PC70.wav	1.0	1	2.309
