onset	duration	trial_type	correct	window1_response	window1_RT	window2_response	window2_RT	stim_file	calculated_response	calculated_accuracy	calculated_RT
1.068	3.5	P_R	1.0	n/a	n/a	n/a	n/a	Phon/Phon_run-02/stereo_PR20.wav	n/a	0	n/a
4.5710000000000015	4.235	P_O	1.0	n/a	n/a	1.0	1.469	Phon/Phon_run-02/PC034.wav	1.0	1	1.219
8.807	3.375	P_R	1.0	n/a	n/a	n/a	n/a	Phon/Phon_run-02/stereo_PR13.wav	n/a	0	n/a
12.193	3.474	P_C	1.0	1.0	0.659	1.0	0.512	Phon/Phon_run-02/ContS12.wav	1.0	1	0.659
15.679	3.875	P_U	2.0	n/a	n/a	2.0	1.795	Phon/Phon_run-02/PM025.wav	2.0	1	1.545
19.565	3.726	P_R	1.0	n/a	n/a	1.0	1.3869999999999998	Phon/Phon_run-02/stereo_PR22.wav	1.0	1	1.1369999999999998
23.302	3.451	P_O	1.0	n/a	n/a	2.0	1.4480000000000002	Phon/Phon_run-02/PC014.wav	2.0	0	1.1980000000000002
26.754	3.779	P_C	1.0	1.0	0.5820000000000001	1.0	0.344	Phon/Phon_run-02/ContS02.wav	1.0	1	0.5820000000000001
30.54	3.821	P_U	2.0	n/a	n/a	2.0	1.445	Phon/Phon_run-02/stereo_PU18.wav	2.0	1	1.195
34.376999999999995	3.49	P_U	2.0	n/a	n/a	2.0	1.7590000000000001	Phon/Phon_run-02/stereo_PU12.wav	2.0	1	1.509
37.879	4.38	P_C	1.0	1.0	0.625	1.0	0.601	Phon/Phon_run-02/ContS32.wav	1.0	1	0.625
42.26600000000001	4.0969999999999995	P_R	1.0	n/a	n/a	1.0	1.368	Phon/Phon_run-02/stereo_PR16.wav	1.0	1	1.118
46.369	3.5	P_O	1.0	n/a	n/a	2.0	1.6130000000000002	Phon/Phon_run-02/PC022.wav	2.0	0	1.3630000000000002
49.872	4.0760000000000005	P_R	1.0	n/a	n/a	1.0	1.656	Phon/Phon_run-02/stereo_PR08.wav	1.0	1	1.406
53.958	3.5	P_O	1.0	n/a	n/a	2.0	1.4509999999999998	Phon/Phon_run-02/PC028.wav	2.0	0	1.2009999999999998
57.46100000000001	3.5	P_U	2.0	n/a	n/a	2.0	1.8	Phon/Phon_run-02/stereo_PU27.wav	2.0	1	1.55
60.964	3.819	P_C	1.0	1.0	0.636	1.0	0.461	Phon/Phon_run-02/ContS06.wav	1.0	1	0.636
64.783	4.25	P_O	1.0	n/a	n/a	2.0	2.045	Phon/Phon_run-02/PC031.wav	2.0	0	1.795
69.03699999999999	3.662	P_C	1.0	n/a	n/a	1.0	0.013999999999999999	Phon/Phon_run-02/ContS36.wav	1.0	1	0.764
72.706	3.823	P_O	1.0	n/a	n/a	2.0	1.314	Phon/Phon_run-02/PC023.wav	2.0	0	1.064
76.542	4.323	P_C	1.0	1.0	0.619	1.0	0.737	Phon/Phon_run-02/ContS24.wav	1.0	1	0.619
80.87899999999998	3.865	P_U	2.0	n/a	n/a	2.0	2.08	Phon/Phon_run-02/PM004.wav	2.0	1	1.83
84.749	3.875	P_O	1.0	n/a	n/a	1.0	2.27	Phon/Phon_run-02/PC007.wav	1.0	1	2.02
88.635	4.25	P_U	2.0	n/a	n/a	2.0	2.112	Phon/Phon_run-02/PM011.wav	2.0	1	1.862
92.88799999999999	4.362	P_C	1.0	1.0	0.604	1.0	0.579	Phon/Phon_run-02/ContS30.wav	1.0	1	0.604
97.258	3.875	P_O	1.0	n/a	n/a	2.0	1.4909999999999999	Phon/Phon_run-02/PC030.wav	2.0	0	1.241
101.145	3.3360000000000003	P_R	1.0	n/a	n/a	n/a	n/a	Phon/Phon_run-02/stereo_PR05.wav	n/a	0	n/a
104.48100000000001	4.113	P_U	2.0	n/a	n/a	2.0	2.89	Phon/Phon_run-02/stereo_PU01.wav	2.0	1	2.64
108.6	4.1739999999999995	P_U	2.0	n/a	n/a	2.0	1.9609999999999999	Phon/Phon_run-02/PM029.wav	2.0	1	1.711
112.787	3.4539999999999997	P_C	1.0	1.0	0.574	1.0	0.605	Phon/Phon_run-02/ContS08.wav	1.0	1	0.574
116.256	3.446	P_R	1.0	n/a	n/a	1.0	1.646	Phon/Phon_run-02/stereo_PR30.wav	1.0	1	1.396
119.709	3.85	P_R	1.0	n/a	n/a	2.0	1.56	Phon/Phon_run-02/stereo_PR07.wav	2.0	0	1.31
123.56200000000001	3.438	P_U	2.0	n/a	n/a	2.0	1.7469999999999999	Phon/Phon_run-02/stereo_PU02.wav	2.0	1	1.497
127.015	3.915	P_C	1.0	n/a	n/a	1.0	0.12	Phon/Phon_run-02/ContS20.wav	1.0	1	0.87
130.934	3.487	P_U	2.0	n/a	n/a	1.0	2.04	Phon/Phon_run-02/PM021.wav	1.0	0	1.79
134.437	3.965	P_C	1.0	1.0	0.621	1.0	0.619	Phon/Phon_run-02/ContS26.wav	1.0	1	0.621
138.407	3.792	P_R	1.0	n/a	n/a	1.0	2.173	Phon/Phon_run-02/stereo_PR31.wav	1.0	1	1.923
142.21	4.135	P_O	1.0	n/a	n/a	2.0	2.246	Phon/Phon_run-02/PC024.wav	2.0	0	1.996
146.346	3.875	P_U	2.0	n/a	n/a	2.0	1.9509999999999998	Phon/Phon_run-02/PM010.wav	2.0	1	1.701
150.232	3.875	P_O	1.0	n/a	n/a	1.0	2.4130000000000003	Phon/Phon_run-02/PC015.wav	1.0	1	2.1630000000000003
154.119	4.245	P_C	1.0	1.0	0.636	1.0	0.561	Phon/Phon_run-02/ContS14.wav	1.0	1	0.636
158.372	3.854	P_R	1.0	n/a	n/a	1.0	1.339	Phon/Phon_run-02/stereo_PR14.wav	1.0	1	1.089
162.24200000000005	4.239	P_O	1.0	n/a	n/a	1.0	1.7469999999999999	Phon/Phon_run-02/PC008.wav	1.0	1	1.497
166.495	4.25	P_U	2.0	n/a	n/a	2.0	2.356	Phon/Phon_run-02/stereo_PU11.wav	2.0	1	2.106
170.748	3.523	P_C	1.0	1.0	0.619	1.0	0.46399999999999997	Phon/Phon_run-02/ContS18.wav	1.0	1	0.619
174.28400000000005	3.429	P_O	1.0	n/a	n/a	2.0	2.029	Phon/Phon_run-02/PC006.wav	2.0	0	1.779
177.72	4.18	P_R	1.0	n/a	n/a	2.0	2.173	Phon/Phon_run-02/stereo_PR32.wav	2.0	0	1.923
181.907	4.104	P_R	1.0	n/a	n/a	1.0	2.6660000000000004	Phon/Phon_run-02/stereo_PR24.wav	1.0	1	2.4160000000000004
