onset	duration	trial_type	correct	window1_response	window1_RT	window2_response	window2_RT	stim_file	calculated_response	calculated_accuracy	calculated_RT
1.0924	3.5	P_R	1.0	n/a	n/a	n/a	n/a	Phon/Phon_run-02/stereo_PR20.wav	n/a	0	n/a
4.595	4.235	P_O	1.0	n/a	n/a	1.0	1.4609999999999999	Phon/Phon_run-02/PC034.wav	1.0	1	1.211
8.8325	3.375	P_R	1.0	n/a	n/a	2.0	0.628	Phon/Phon_run-02/stereo_PR13.wav	2.0	0	0.378
12.2183	3.474	P_C	1.0	n/a	n/a	n/a	n/a	Phon/Phon_run-02/ContS12.wav	n/a	0	n/a
15.7041	3.875	P_U	2.0	n/a	n/a	2.0	0.836	Phon/Phon_run-02/PM025.wav	2.0	1	0.586
19.5903	3.726	P_R	1.0	n/a	n/a	1.0	1.288	Phon/Phon_run-02/stereo_PR22.wav	1.0	1	1.038
23.3263	3.451	P_O	1.0	n/a	n/a	2.0	1.124	Phon/Phon_run-02/PC014.wav	2.0	0	0.8740000000000001
26.7799	3.779	P_C	1.0	n/a	n/a	1.0	0.7829999999999999	Phon/Phon_run-02/ContS02.wav	1.0	1	1.533
30.566	3.821	P_U	2.0	n/a	n/a	2.0	0.8009999999999999	Phon/Phon_run-02/stereo_PU18.wav	2.0	1	0.5509999999999999
34.402	3.49	P_U	2.0	n/a	n/a	1.0	1.045	Phon/Phon_run-02/stereo_PU12.wav	1.0	0	0.7949999999999999
37.9046	4.38	P_C	1.0	n/a	n/a	1.0	1.5619999999999998	Phon/Phon_run-02/ContS32.wav	1.0	1	2.312
42.291000000000004	4.0969999999999995	P_R	1.0	n/a	n/a	2.0	1.053	Phon/Phon_run-02/stereo_PR16.wav	2.0	0	0.8029999999999999
46.394	3.5	P_O	1.0	n/a	n/a	2.0	1.605	Phon/Phon_run-02/PC022.wav	2.0	0	1.355
49.8966	4.0760000000000005	P_R	1.0	n/a	n/a	n/a	n/a	Phon/Phon_run-02/stereo_PR08.wav	n/a	0	n/a
53.983000000000004	3.5	P_O	1.0	n/a	n/a	2.0	1.754	Phon/Phon_run-02/PC028.wav	2.0	0	1.504
57.4856	3.5	P_U	2.0	n/a	n/a	n/a	n/a	Phon/Phon_run-02/stereo_PU27.wav	n/a	0	n/a
60.9881	3.819	P_C	1.0	n/a	n/a	n/a	n/a	Phon/Phon_run-02/ContS06.wav	n/a	0	n/a
64.8086	4.25	P_O	1.0	n/a	n/a	2.0	1.044	Phon/Phon_run-02/PC031.wav	2.0	0	0.794
69.062	3.662	P_C	1.0	n/a	n/a	1.0	1.574	Phon/Phon_run-02/ContS36.wav	1.0	1	2.324
72.7312	3.823	P_O	1.0	n/a	n/a	2.0	1.935	Phon/Phon_run-02/PC023.wav	2.0	0	1.685
76.5674	4.323	P_C	1.0	n/a	n/a	1.0	1.2570000000000001	Phon/Phon_run-02/ContS24.wav	1.0	1	2.0069999999999997
80.9038	3.865	P_U	2.0	n/a	n/a	2.0	1.432	Phon/Phon_run-02/PM004.wav	2.0	1	1.182
84.7733	3.875	P_O	1.0	n/a	n/a	1.0	1.166	Phon/Phon_run-02/PC007.wav	1.0	1	0.9159999999999999
88.6594	4.25	P_U	2.0	n/a	n/a	2.0	1.49	Phon/Phon_run-02/PM011.wav	2.0	1	1.24
92.9126	4.362	P_C	1.0	n/a	n/a	1.0	1.459	Phon/Phon_run-02/ContS30.wav	1.0	1	2.209
97.2825	3.875	P_O	1.0	n/a	n/a	2.0	1.046	Phon/Phon_run-02/PC030.wav	2.0	0	0.796
101.1687	3.3360000000000003	P_R	1.0	n/a	n/a	2.0	1.815	Phon/Phon_run-02/stereo_PR05.wav	2.0	0	1.565
104.5077	4.113	P_U	2.0	n/a	n/a	1.0	1.3119999999999998	Phon/Phon_run-02/stereo_PU01.wav	1.0	0	1.0619999999999998
108.6273	4.1739999999999995	P_U	2.0	n/a	n/a	1.0	2.22	Phon/Phon_run-02/PM029.wav	1.0	0	1.9700000000000002
112.8137	3.4539999999999997	P_C	1.0	n/a	n/a	n/a	n/a	Phon/Phon_run-02/ContS08.wav	n/a	0	n/a
116.2828	3.446	P_R	1.0	n/a	n/a	2.0	1.725	Phon/Phon_run-02/stereo_PR30.wav	2.0	0	1.475
119.7352	3.85	P_R	1.0	n/a	n/a	n/a	n/a	Phon/Phon_run-02/stereo_PR07.wav	n/a	0	n/a
123.588	3.438	P_U	2.0	n/a	n/a	n/a	n/a	Phon/Phon_run-02/stereo_PU02.wav	n/a	0	n/a
127.0406	3.915	P_C	1.0	1.0	0.009000000000000001	n/a	n/a	Phon/Phon_run-02/ContS20.wav	1.0	1	0.009000000000000001
130.9601	3.487	P_U	2.0	n/a	n/a	n/a	n/a	Phon/Phon_run-02/PM021.wav	n/a	0	n/a
134.46200000000002	3.965	P_C	1.0	n/a	n/a	1.0	1.42	Phon/Phon_run-02/ContS26.wav	1.0	1	2.17
138.4315	3.792	P_R	1.0	n/a	n/a	2.0	1.4709999999999999	Phon/Phon_run-02/stereo_PR31.wav	2.0	0	1.221
142.2343	4.135	P_O	1.0	n/a	n/a	n/a	n/a	Phon/Phon_run-02/PC024.wav	n/a	0	n/a
146.3717	3.875	P_U	2.0	n/a	n/a	1.0	1.148	Phon/Phon_run-02/PM010.wav	1.0	0	0.8979999999999999
150.2579	3.875	P_O	1.0	n/a	n/a	n/a	n/a	Phon/Phon_run-02/PC015.wav	n/a	0	n/a
154.144	4.245	P_C	1.0	n/a	n/a	1.0	1.7109999999999999	Phon/Phon_run-02/ContS14.wav	1.0	1	2.4610000000000003
158.3971	3.854	P_R	1.0	n/a	n/a	2.0	1.4880000000000002	Phon/Phon_run-02/stereo_PR14.wav	2.0	0	1.2380000000000002
162.2662	4.239	P_O	1.0	n/a	n/a	1.0	1.6969999999999998	Phon/Phon_run-02/PC008.wav	1.0	1	1.4469999999999998
166.5192	4.25	P_U	2.0	n/a	n/a	2.0	1.9269999999999998	Phon/Phon_run-02/stereo_PU11.wav	2.0	1	1.677
170.7726	3.523	P_C	1.0	n/a	n/a	1.0	1.189	Phon/Phon_run-02/ContS18.wav	1.0	1	1.939
174.3085	3.429	P_O	1.0	n/a	n/a	n/a	n/a	Phon/Phon_run-02/PC006.wav	n/a	0	n/a
177.7443	4.18	P_R	1.0	n/a	n/a	1.0	1.6030000000000002	Phon/Phon_run-02/stereo_PR32.wav	1.0	1	1.3530000000000002
181.9307	4.104	P_R	1.0	n/a	n/a	2.0	1.9069999999999998	Phon/Phon_run-02/stereo_PR24.wav	2.0	0	1.657
