onset	duration	trial_type	correct	window1_response	window1_RT	window2_response	window2_RT	stim_file	calculated_response	calculated_accuracy	calculated_RT
1.0934	7.632999999999999	G_P	2.0	n/a	n/a	2.0	3.846	Gram/Gram_run-02/stereo_1MP45U4.wav	2.0	1	1.7149999999999999
8.7323	7.315	G_F	2.0	n/a	n/a	2.0	5.33	Gram/Gram_run-02/stereo_1MF20U4.wav	2.0	1	4.619999999999999
16.0543	6.283	G_P	2.0	n/a	n/a	2.0	3.7030000000000003	Gram/Gram_run-02/stereo_1MP34U2.wav	2.0	1	2.6109999999999998
22.3421	6.195	G_C	1.0	n/a	n/a	n/a	n/a	Gram/Gram_run-02/CoM06d.wav	n/a	0	n/a
28.5465	6.221	G_G	1.0	n/a	n/a	1.0	4.62	Gram/Gram_run-02/stereo_1MF02G1.wav	1.0	1	2.58
34.769	5.801	G_F	2.0	n/a	n/a	2.0	3.8710000000000004	Gram/Gram_run-02/stereo_2MF64U3.wav	2.0	1	4.621
40.5743	6.78	G_C	1.0	n/a	n/a	n/a	n/a	Gram/Gram_run-02/CoM07l.wav	n/a	0	n/a
47.3625	6.084	G_F	2.0	n/a	n/a	1.0	3.438	Gram/Gram_run-02/stereo_2MF56U2.wav	1.0	0	4.188000000000001
53.4512	7.5470000000000015	G_F	2.0	n/a	n/a	2.0	4.1080000000000005	Gram/Gram_run-02/stereo_1MF21U4.wav	2.0	1	3.357
61.0065	6.482	G_G	1.0	n/a	n/a	2.0	4.54	Gram/Gram_run-02/stereo_1MF24G4.wav	2.0	0	2.1790000000000003
67.4946	6.7810000000000015	G_P	2.0	n/a	n/a	2.0	5.558	Gram/Gram_run-02/stereo_2MP76U1.wav	2.0	1	3.2960000000000003
74.2828	6.643	G_P	2.0	n/a	n/a	2.0	3.864	Gram/Gram_run-02/stereo_2MP80U2.wav	2.0	1	2.908
80.9376	7.69	G_C	1.0	n/a	n/a	1.0	1.002	Gram/Gram_run-02/CoM06e.wav	1.0	1	1.752
88.639	6.352	G_F	2.0	n/a	n/a	2.0	4.212	Gram/Gram_run-02/stereo_2MF63U3.wav	2.0	1	4.962
94.9947	5.801	G_G	1.0	n/a	n/a	1.0	3.805	Gram/Gram_run-02/stereo_1MF18G3.wav	1.0	1	2.422
100.8001	7.113	G_P	2.0	n/a	n/a	2.0	3.661	Gram/Gram_run-02/stereo_1MP44U4.wav	2.0	1	1.3039999999999998
107.9218	6.78	G_C	1.0	n/a	n/a	1.0	2.2969999999999997	Gram/Gram_run-02/CoM05b.wav	1.0	1	3.047
114.7101	6.7360000000000015	G_F	2.0	n/a	n/a	2.0	2.798	Gram/Gram_run-02/stereo_2MF58U2.wav	2.0	1	3.548
121.4494	6.089	G_P	2.0	n/a	n/a	2.0	2.641	Gram/Gram_run-02/stereo_2MP87U3.wav	2.0	1	1.429
127.5529	7.6370000000000005	G_P	2.0	n/a	n/a	2.0	5.716	Gram/Gram_run-02/stereo_2MP73U1.wav	2.0	1	3.689
135.1929	7.305	G_C	1.0	n/a	n/a	1.0	0.6809999999999999	Gram/Gram_run-02/CoM02l.wav	1.0	1	1.431
142.4994	5.983	G_G	1.0	n/a	n/a	2.0	3.158	Gram/Gram_run-02/stereo_1MP42G3.wav	2.0	0	2.2359999999999998
148.4871	5.36	G_P	2.0	n/a	n/a	2.0	3.162	Gram/Gram_run-02/stereo_1MP32U2.wav	2.0	1	2.1559999999999997
153.8576	7.145	G_C	1.0	n/a	n/a	1.0	1.172	Gram/Gram_run-02/CoM09e.wav	1.0	1	1.922
161.0128	6.28	G_F	2.0	n/a	n/a	2.0	4.828	Gram/Gram_run-02/stereo_1MF19U4.wav	2.0	1	4.142
167.3005	6.63	G_C	1.0	n/a	n/a	1.0	0.008	Gram/Gram_run-02/CoM07b.wav	1.0	1	0.758
173.9386	7.195	G_G	1.0	n/a	n/a	2.0	4.0969999999999995	Gram/Gram_run-02/stereo_2MP89G3.wav	2.0	0	2.7590000000000003
181.1437	5.174	G_F	2.0	n/a	n/a	2.0	2.189	Gram/Gram_run-02/stereo_1MF07U2.wav	2.0	1	2.939
186.3308	6.944	G_P	2.0	n/a	n/a	2.0	2.8789999999999996	Gram/Gram_run-02/stereo_2MP88U3.wav	2.0	1	1.836
193.2858	6.089	G_G	1.0	n/a	n/a	2.0	4.208	Gram/Gram_run-02/stereo_2MF66G3.wav	2.0	0	2.8340000000000005
199.3896	6.5	G_C	1.0	n/a	n/a	1.0	0.325	Gram/Gram_run-02/CoM01e.wav	1.0	1	1.075
205.8946	6.43	G_P	2.0	n/a	n/a	2.0	3.907	Gram/Gram_run-02/stereo_1MP43U4.wav	2.0	1	1.625
212.3325	6.19	G_G	1.0	n/a	n/a	2.0	2.6519999999999997	Gram/Gram_run-02/stereo_2MP84G2.wav	2.0	0	1.7200000000000002
218.537	7.114	G_G	1.0	n/a	n/a	2.0	4.228	Gram/Gram_run-02/stereo_1MP29G1.wav	2.0	0	2.0399999999999996
225.6587	6.731	G_F	2.0	n/a	n/a	1.0	5.059	Gram/Gram_run-02/stereo_2MF53U1.wav	1.0	0	4.4879999999999995
232.3969	6.015	G_C	1.0	n/a	n/a	1.0	0.38	Gram/Gram_run-02/CoM02d.wav	1.0	1	1.13
238.4179	7.17	G_G	1.0	n/a	n/a	2.0	4.265	Gram/Gram_run-02/stereo_2MF71G4.wav	2.0	0	2.015999999999999
245.5909	5.33	G_C	1.0	n/a	n/a	2.0	1.84	Gram/Gram_run-02/CoM06b.wav	2.0	0	2.59
250.9316	6.968999999999999	G_F	2.0	n/a	n/a	2.0	3.2769999999999997	Gram/Gram_run-02/stereo_2MF54U1.wav	2.0	1	2.7070000000000003
257.9045	7.6	G_G	1.0	n/a	n/a	2.0	3.591	Gram/Gram_run-02/stereo_2MF49G1.wav	2.0	0	1.4020000000000001
