onset	duration	trial_type	correct	window1_response	window1_RT	window2_response	window2_RT	stim_file	calculated_response	calculated_accuracy	calculated_RT
1.0964	7.034	SP_W	1.0	n/a	n/a	1.0	4.434	Plaus/Plaus_run-01/stereo_PW85.wav	1.0	1	2.287
8.1359	5.641	SP_I	2.0	n/a	n/a	2.0	2.742	Plaus/Plaus_run-01/stereo_PI11.wav	2.0	1	1.822
13.79	6.77	SP_C	1.0	n/a	n/a	1.0	0.123	Plaus/Plaus_run-01/CoM08b.wav	1.0	1	0.873
20.5628	7.327000000000001	SP_W	1.0	n/a	n/a	1.0	4.042	Plaus/Plaus_run-01/stereo_PW72.wav	1.0	1	2.062
27.9014	6.145	SP_C	1.0	n/a	n/a	1.0	0.635	Plaus/Plaus_run-01/CoM05d.wav	1.0	1	1.385
34.0559	5.181	SP_I	2.0	n/a	n/a	2.0	2.795	Plaus/Plaus_run-01/stereo_PI65.wav	2.0	1	1.853
39.243	5.092	SP_S	1.0	n/a	n/a	2.0	2.861	Plaus/Plaus_run-01/stereo_PC13.wav	2.0	0	1.798
44.3468	7.355	SP_C	1.0	n/a	n/a	1.0	0.162	Plaus/Plaus_run-01/CoM06l.wav	1.0	1	0.912
51.7032	7.47	SP_I	2.0	n/a	n/a	2.0	4.7330000000000005	Plaus/Plaus_run-01/stereo_PI90.wav	2.0	1	2.5620000000000007
59.1764	7.399	SP_S	1.0	n/a	n/a	1.0	4.766	Plaus/Plaus_run-01/stereo_PC35.wav	1.0	1	2.499
66.5818	5.685	SP_S	1.0	n/a	n/a	1.0	2.889	Plaus/Plaus_run-01/stereo_PC47.wav	1.0	1	1.88
72.2704	5.669	SP_W	1.0	n/a	n/a	1.0	3.548	Plaus/Plaus_run-01/stereo_PW19.wav	1.0	1	2.542
77.9423	7.9	SP_C	1.0	n/a	n/a	1.0	0.194	Plaus/Plaus_run-01/CoM03l.wav	1.0	1	0.9440000000000001
85.8483	5.145	SP_I	2.0	n/a	n/a	2.0	3.74	Plaus/Plaus_run-01/stereo_PI09.wav	2.0	1	2.7319999999999998
91.0021	6.9170000000000025	SP_W	1.0	n/a	n/a	2.0	3.935	Plaus/Plaus_run-01/stereo_PW30.wav	2.0	0	1.815
97.9243	5.738	SP_S	1.0	n/a	n/a	1.0	3.268	Plaus/Plaus_run-01/stereo_PC14.wav	1.0	1	2.0970000000000004
103.6662	6.276	SP_W	1.0	n/a	n/a	1.0	3.043	Plaus/Plaus_run-01/stereo_PW50.wav	1.0	1	2.221
109.954	5.49	SP_C	1.0	n/a	n/a	1.0	0.128	Plaus/Plaus_run-01/CoM03d.wav	1.0	1	0.878
115.458	5.7	SP_I	2.0	n/a	n/a	2.0	3.951	Plaus/Plaus_run-01/stereo_PI67.wav	2.0	1	3.06
121.1625	7.237	SP_S	1.0	n/a	n/a	1.0	3.4730000000000003	Plaus/Plaus_run-01/stereo_PC68.wav	1.0	1	1.507
128.4022	6.49	SP_C	1.0	n/a	n/a	1.0	1.144	Plaus/Plaus_run-01/CoM03b.wav	1.0	1	1.894
134.9065	6.25	SP_W	1.0	n/a	n/a	2.0	4.06	Plaus/Plaus_run-01/stereo_PW61.wav	2.0	0	3.08
141.161	6.952999999999999	SP_I	2.0	n/a	n/a	2.0	4.006	Plaus/Plaus_run-01/stereo_PI32.wav	2.0	1	1.841
148.1173	7.085	SP_C	1.0	n/a	n/a	1.0	0.35100000000000003	Plaus/Plaus_run-01/CoM02e.wav	1.0	1	1.101
155.2068	6.3610000000000015	SP_S	1.0	n/a	n/a	1.0	4.52	Plaus/Plaus_run-01/stereo_PC24.wav	1.0	1	2.262
161.5781	5.1110000000000015	SP_W	1.0	n/a	n/a	1.0	3.022	Plaus/Plaus_run-01/stereo_PW53.wav	1.0	1	2.008
166.6985	6.2860000000000005	SP_I	2.0	n/a	n/a	2.0	4.205	Plaus/Plaus_run-01/stereo_PI42.wav	2.0	1	2.0090000000000003
172.9876	6.577000000000001	SP_S	1.0	n/a	n/a	1.0	3.464	Plaus/Plaus_run-01/stereo_PC57.wav	1.0	1	2.269
179.5757	5.273	SP_W	1.0	n/a	n/a	1.0	3.341	Plaus/Plaus_run-01/stereo_PW18.wav	1.0	1	2.1740000000000004
184.8629	5.77	SP_C	1.0	n/a	n/a	1.0	0.3670000000000001	Plaus/Plaus_run-01/CoM09b.wav	1.0	1	1.117
190.6348	6.731	SP_S	1.0	n/a	n/a	1.0	3.862	Plaus/Plaus_run-01/stereo_PC26.wav	1.0	1	1.7619999999999998
197.3731	7.212999999999999	SP_I	2.0	n/a	n/a	2.0	3.76	Plaus/Plaus_run-01/stereo_PI33.wav	2.0	1	1.7769999999999997
204.595	5.181	SP_S	1.0	n/a	n/a	1.0	2.767	Plaus/Plaus_run-01/stereo_PC01.wav	1.0	1	1.8259999999999998
209.7821	6.238	SP_S	1.0	n/a	n/a	1.0	4.331	Plaus/Plaus_run-01/stereo_PC36.wav	1.0	1	2.285
216.0211	7.73	SP_C	1.0	1.0	0.669	1.0	0.983	Plaus/Plaus_run-01/CoM10e.wav	1.0	1	0.669
223.7601	6.843	SP_I	2.0	n/a	n/a	2.0	3.757	Plaus/Plaus_run-01/stereo_PI45.wav	2.0	1	1.63
230.615	6.101	SP_W	1.0	n/a	n/a	2.0	3.612	Plaus/Plaus_run-01/stereo_PW28.wav	2.0	0	1.6799999999999995
236.7206	7.419	SP_W	1.0	n/a	n/a	1.0	3.829	Plaus/Plaus_run-01/stereo_PW86.wav	1.0	1	1.793
244.1438	6.54	SP_C	1.0	n/a	n/a	1.0	0.236	Plaus/Plaus_run-01/CoM05e.wav	1.0	1	0.986
250.6981	6.247000000000001	SP_I	2.0	n/a	n/a	2.0	3.397	Plaus/Plaus_run-01/stereo_PI12.wav	2.0	1	2.526
