onset	duration	trial_type	correct	window1_response	window1_RT	window2_response	window2_RT	stim_file	calculated_response	calculated_accuracy	calculated_RT
1.0924	3.5	P_R	1.0	n/a	n/a	1.0	2.178	Phon/Phon_run-02/stereo_PR20.wav	1.0	1	1.928
4.595	4.235	P_O	1.0	n/a	n/a	1.0	1.56	Phon/Phon_run-02/PC034.wav	1.0	1	1.31
8.8325	3.375	P_R	1.0	n/a	n/a	n/a	n/a	Phon/Phon_run-02/stereo_PR13.wav	n/a	0	n/a
12.2183	3.474	P_C	1.0	n/a	n/a	1.0	0.8440000000000001	Phon/Phon_run-02/ContS12.wav	1.0	1	1.594
15.7041	3.875	P_U	2.0	n/a	n/a	2.0	1.528	Phon/Phon_run-02/PM025.wav	2.0	1	1.278
19.5903	3.726	P_R	1.0	n/a	n/a	1.0	1.9	Phon/Phon_run-02/stereo_PR22.wav	1.0	1	1.65
23.3263	3.451	P_O	1.0	n/a	n/a	2.0	1.3880000000000001	Phon/Phon_run-02/PC014.wav	2.0	0	1.138
26.7799	3.779	P_C	1.0	n/a	n/a	1.0	0.35200000000000004	Phon/Phon_run-02/ContS02.wav	1.0	1	1.102
30.566	3.821	P_U	2.0	n/a	n/a	2.0	1.3719999999999999	Phon/Phon_run-02/stereo_PU18.wav	2.0	1	1.122
34.402	3.49	P_U	2.0	n/a	n/a	2.0	2.126	Phon/Phon_run-02/stereo_PU12.wav	2.0	1	1.876
37.9046	4.38	P_C	1.0	n/a	n/a	1.0	0.887	Phon/Phon_run-02/ContS32.wav	1.0	1	1.637
42.291000000000004	4.0969999999999995	P_R	1.0	n/a	n/a	1.0	2.379	Phon/Phon_run-02/stereo_PR16.wav	1.0	1	2.129
46.394	3.5	P_O	1.0	n/a	n/a	n/a	n/a	Phon/Phon_run-02/PC022.wav	n/a	0	n/a
49.8966	4.0760000000000005	P_R	1.0	n/a	n/a	1.0	1.151	Phon/Phon_run-02/stereo_PR08.wav	1.0	1	0.901
53.983000000000004	3.5	P_O	1.0	n/a	n/a	2.0	1.298	Phon/Phon_run-02/PC028.wav	2.0	0	1.048
57.4856	3.5	P_U	2.0	n/a	n/a	1.0	1.412	Phon/Phon_run-02/stereo_PU27.wav	1.0	0	1.162
60.9881	3.819	P_C	1.0	1.0	0.6890000000000001	1.0	0.659	Phon/Phon_run-02/ContS06.wav	1.0	1	0.6890000000000001
64.8086	4.25	P_O	1.0	n/a	n/a	1.0	1.601	Phon/Phon_run-02/PC031.wav	1.0	1	1.351
69.062	3.662	P_C	1.0	n/a	n/a	1.0	0.217	Phon/Phon_run-02/ContS36.wav	1.0	1	0.967
72.7312	3.823	P_O	1.0	n/a	n/a	1.0	2.036	Phon/Phon_run-02/PC023.wav	1.0	1	1.786
76.5674	4.323	P_C	1.0	n/a	n/a	n/a	n/a	Phon/Phon_run-02/ContS24.wav	n/a	0	n/a
80.9038	3.865	P_U	2.0	n/a	n/a	2.0	1.5219999999999998	Phon/Phon_run-02/PM004.wav	2.0	1	1.2719999999999998
84.7733	3.875	P_O	1.0	n/a	n/a	1.0	1.4569999999999999	Phon/Phon_run-02/PC007.wav	1.0	1	1.207
88.6594	4.25	P_U	2.0	n/a	n/a	1.0	2.898	Phon/Phon_run-02/PM011.wav	1.0	0	2.648
92.9126	4.362	P_C	1.0	n/a	n/a	1.0	0.39299999999999996	Phon/Phon_run-02/ContS30.wav	1.0	1	1.143
97.2825	3.875	P_O	1.0	n/a	n/a	2.0	2.273	Phon/Phon_run-02/PC030.wav	2.0	0	2.023
101.1687	3.3360000000000003	P_R	1.0	n/a	n/a	n/a	n/a	Phon/Phon_run-02/stereo_PR05.wav	1.0	1	2.4930000000000003
104.5077	4.113	P_U	2.0	1.0	0.157	2.0	1.058	Phon/Phon_run-02/stereo_PU01.wav	2.0	1	0.808
108.6273	4.1739999999999995	P_U	2.0	n/a	n/a	1.0	1.393	Phon/Phon_run-02/PM029.wav	1.0	0	1.143
112.8137	3.4539999999999997	P_C	1.0	n/a	n/a	1.0	0.021	Phon/Phon_run-02/ContS08.wav	1.0	1	0.771
116.2828	3.446	P_R	1.0	n/a	n/a	2.0	1.933	Phon/Phon_run-02/stereo_PR30.wav	2.0	0	1.683
119.7352	3.85	P_R	1.0	n/a	n/a	1.0	1.4180000000000001	Phon/Phon_run-02/stereo_PR07.wav	1.0	1	1.168
123.588	3.438	P_U	2.0	n/a	n/a	2.0	2.267	Phon/Phon_run-02/stereo_PU02.wav	2.0	1	2.017
127.0406	3.915	P_C	1.0	n/a	n/a	1.0	1.399	Phon/Phon_run-02/ContS20.wav	1.0	1	2.149
130.9601	3.487	P_U	2.0	n/a	n/a	2.0	1.275	Phon/Phon_run-02/PM021.wav	2.0	1	1.025
134.46200000000002	3.965	P_C	1.0	n/a	n/a	1.0	0.13699999999999998	Phon/Phon_run-02/ContS26.wav	1.0	1	0.887
138.4315	3.792	P_R	1.0	n/a	n/a	2.0	2.51	Phon/Phon_run-02/stereo_PR31.wav	2.0	0	2.26
142.2343	4.135	P_O	1.0	n/a	n/a	1.0	1.7380000000000002	Phon/Phon_run-02/PC024.wav	1.0	1	1.4880000000000002
146.3717	3.875	P_U	2.0	n/a	n/a	2.0	2.19	Phon/Phon_run-02/PM010.wav	2.0	1	1.94
150.2579	3.875	P_O	1.0	n/a	n/a	1.0	1.6980000000000002	Phon/Phon_run-02/PC015.wav	1.0	1	1.4480000000000002
154.144	4.245	P_C	1.0	n/a	n/a	n/a	n/a	Phon/Phon_run-02/ContS14.wav	n/a	0	n/a
158.3971	3.854	P_R	1.0	n/a	n/a	1.0	1.474	Phon/Phon_run-02/stereo_PR14.wav	1.0	1	1.224
162.2662	4.239	P_O	1.0	n/a	n/a	2.0	2.7769999999999997	Phon/Phon_run-02/PC008.wav	2.0	0	2.527
166.5192	4.25	P_U	2.0	n/a	n/a	1.0	1.874	Phon/Phon_run-02/stereo_PU11.wav	1.0	0	1.624
170.7726	3.523	P_C	1.0	n/a	n/a	1.0	0.285	Phon/Phon_run-02/ContS18.wav	1.0	1	1.035
174.3085	3.429	P_O	1.0	n/a	n/a	1.0	1.829	Phon/Phon_run-02/PC006.wav	1.0	1	1.579
177.7443	4.18	P_R	1.0	n/a	n/a	1.0	1.605	Phon/Phon_run-02/stereo_PR32.wav	1.0	1	1.355
181.9307	4.104	P_R	1.0	n/a	n/a	1.0	1.425	Phon/Phon_run-02/stereo_PR24.wav	1.0	1	1.175
