onset	duration	trial_type	correct	window1_response	window1_RT	window2_response	window2_RT	stim_file	calculated_response	calculated_accuracy	calculated_RT
1.084	3.4539999999999997	P_R	1.0	n/a	n/a	1.0	1.796	Phon/Phon_run-01/stereo_PR01.wav	1.0	1	1.546
4.553	3.767	P_O	1.0	n/a	n/a	1.0	1.3619999999999999	Phon/Phon_run-01/PC018.wav	1.0	1	1.112
8.323	3.391	P_O	1.0	n/a	n/a	1.0	1.3019999999999998	Phon/Phon_run-01/PC009.wav	1.0	1	1.0519999999999998
11.725	4.374	P_C	1.0	1.0	0.6890000000000001	1.0	0.7440000000000001	Phon/Phon_run-01/ContS11.wav	1.0	1	0.6890000000000001
16.112000000000002	3.345	P_U	2.0	n/a	n/a	n/a	n/a	Phon/Phon_run-01/PM002.wav	n/a	0	n/a
19.464000000000002	4.4510000000000005	P_C	1.0	1.0	0.685	1.0	0.6679999999999999	Phon/Phon_run-01/ContS21.wav	1.0	1	0.685
23.91800000000001	4.382	P_O	1.0	n/a	n/a	1.0	1.298	Phon/Phon_run-01/PC005.wav	1.0	1	1.048
28.305	3.3	P_U	2.0	n/a	n/a	2.0	1.034	Phon/Phon_run-01/stereo_PU26.wav	2.0	1	0.784
31.607	4.324	P_C	1.0	1.0	0.71	1.0	0.449	Phon/Phon_run-01/ContS03.wav	1.0	1	0.71
35.944	4.378	P_R	1.0	n/a	n/a	1.0	1.9180000000000001	Phon/Phon_run-01/stereo_PR29.wav	1.0	1	1.668
40.33	3.4810000000000003	P_U	2.0	n/a	n/a	2.0	2.042	Phon/Phon_run-01/PM020.wav	2.0	1	1.7919999999999998
43.816	4.393	P_O	1.0	n/a	n/a	1.0	2.117	Phon/Phon_run-01/PC027.wav	1.0	1	1.867
48.22	4.4	P_R	1.0	n/a	n/a	1.0	1.4040000000000001	Phon/Phon_run-01/stereo_PR11.wav	1.0	1	1.154
52.62300000000001	3.884	P_C	1.0	n/a	n/a	1.0	0.015	Phon/Phon_run-01/ContS05.wav	1.0	1	0.765
56.50899999999999	3.891	P_U	2.0	n/a	n/a	2.0	1.073	Phon/Phon_run-01/stereo_PU28.wav	2.0	1	0.823
60.412	4.4	P_O	1.0	n/a	n/a	1.0	1.175	Phon/Phon_run-01/PC013.wav	1.0	1	0.925
64.816	3.513	P_C	1.0	1.0	0.665	1.0	0.45299999999999996	Phon/Phon_run-01/ContS17.wav	1.0	1	0.665
68.335	4.4	P_U	2.0	n/a	n/a	2.0	1.213	Phon/Phon_run-01/PM027.wav	2.0	1	0.9630000000000001
72.738	4.4	P_O	1.0	n/a	n/a	1.0	1.189	Phon/Phon_run-01/PC021.wav	1.0	1	0.9390000000000001
77.142	4.496	P_C	1.0	1.0	0.6970000000000001	1.0	0.5529999999999999	Phon/Phon_run-01/ContS29.wav	1.0	1	0.6970000000000001
81.645	3.3680000000000003	P_R	1.0	n/a	n/a	1.0	1.308	Phon/Phon_run-01/stereo_PR25.wav	1.0	1	1.058
85.015	3.95	P_O	1.0	n/a	n/a	2.0	1.2570000000000001	Phon/Phon_run-01/PC012.wav	2.0	0	1.007
88.96799999999998	3.95	P_U	2.0	n/a	n/a	1.0	1.126	Phon/Phon_run-01/PM003.wav	1.0	0	0.8759999999999999
92.921	3.939	P_O	1.0	n/a	n/a	2.0	1.7309999999999999	Phon/Phon_run-01/PC004.wav	2.0	0	1.481
96.874	3.59	P_C	1.0	1.0	0.5760000000000001	1.0	0.536	Phon/Phon_run-01/ContS27.wav	1.0	1	0.5760000000000001
100.476	4.296	P_U	2.0	n/a	n/a	1.0	1.536	Phon/Phon_run-01/stereo_PU21.wav	1.0	0	1.286
104.78	3.862	P_R	1.0	n/a	n/a	2.0	1.496	Phon/Phon_run-01/stereo_PR26.wav	2.0	0	1.246
108.649	3.95	P_O	1.0	n/a	n/a	1.0	1.492	Phon/Phon_run-01/PC026.wav	1.0	1	1.242
112.602	3.5	P_O	1.0	n/a	n/a	2.0	1.472	Phon/Phon_run-01/PC025.wav	2.0	0	1.222
116.105	4.013	P_C	1.0	1.0	0.7020000000000001	1.0	0.495	Phon/Phon_run-01/ContS23.wav	1.0	1	0.7020000000000001
120.125	3.792	P_R	1.0	n/a	n/a	1.0	1.7309999999999999	Phon/Phon_run-01/stereo_PR18.wav	1.0	1	1.481
123.928	3.346	P_U	2.0	n/a	n/a	2.0	1.2590000000000001	Phon/Phon_run-01/stereo_PU19.wav	2.0	1	1.009
127.28	3.891	P_R	1.0	n/a	n/a	1.0	1.6440000000000001	Phon/Phon_run-01/stereo_PR03.wav	1.0	1	1.394
131.183	3.355	P_O	1.0	n/a	n/a	2.0	1.229	Phon/Phon_run-01/PC003.wav	2.0	0	0.9790000000000001
134.55200000000002	3.951	P_C	1.0	1.0	0.6920000000000001	1.0	0.496	Phon/Phon_run-01/ContS15.wav	1.0	1	0.6920000000000001
138.505	3.74	P_U	2.0	n/a	n/a	2.0	1.128	Phon/Phon_run-01/stereo_PU16.wav	2.0	1	0.8779999999999999
142.25799999999995	3.95	P_R	1.0	n/a	n/a	1.0	1.26	Phon/Phon_run-01/stereo_PR10.wav	1.0	1	1.01
146.211	3.464	P_C	1.0	n/a	n/a	1.0	0.516	Phon/Phon_run-01/ContS09.wav	1.0	1	1.266
149.681	4.275	P_R	1.0	n/a	n/a	1.0	1.157	Phon/Phon_run-01/stereo_PR04.wav	1.0	1	0.907
153.967	3.95	P_U	2.0	n/a	n/a	2.0	1.275	Phon/Phon_run-01/PM023.wav	2.0	1	1.025
157.92	4.4	P_U	2.0	n/a	n/a	2.0	1.746	Phon/Phon_run-01/PM001.wav	2.0	1	1.496
162.32399999999996	3.665	P_C	1.0	1.0	0.637	1.0	0.6409999999999999	Phon/Phon_run-01/ContS35.wav	1.0	1	0.637
165.993	3.463	P_O	1.0	n/a	n/a	2.0	1.2409999999999999	Phon/Phon_run-01/PC017.wav	2.0	0	0.9910000000000001
169.46200000000005	4.332	P_R	1.0	n/a	n/a	1.0	1.695	Phon/Phon_run-01/stereo_PR19.wav	1.0	1	1.445
173.799	4.083	P_C	1.0	1.0	0.708	1.0	0.59	Phon/Phon_run-01/ContS33.wav	1.0	1	0.708
177.885	3.5	P_R	1.0	n/a	n/a	1.0	1.355	Phon/Phon_run-01/stereo_PR17.wav	1.0	1	1.105
181.388	4.2669999999999995	P_U	2.0	n/a	n/a	2.0	1.683	Phon/Phon_run-01/PM009.wav	2.0	1	1.433
185.658	3.4389999999999996	P_R	1.0	n/a	n/a	1.0	1.2770000000000001	Phon/Phon_run-01/stereo_PR09.wav	1.0	1	1.027
