onset	duration	trial_type	correct	window1_response	window1_RT	window2_response	window2_RT	stim_file	calculated_response	calculated_accuracy	calculated_RT
1.0937	6.343	SP_S	1.0	n/a	n/a	1.0	3.594	Plaus/Plaus_run-02/stereo_PC37.wav	1.0	1	1.4329999999999994
7.4482	6.345	SP_W	1.0	n/a	n/a	1.0	3.426	Plaus/Plaus_run-02/stereo_PW74.wav	1.0	1	1.4570000000000003
13.8029	6.095	SP_C	1.0	n/a	n/a	1.0	1.695	Plaus/Plaus_run-02/CoM10d.wav	1.0	1	2.4450000000000003
19.9073	6.401	SP_I	2.0	n/a	n/a	2.0	2.7710000000000004	Plaus/Plaus_run-02/stereo_PI56.wav	2.0	1	1.9040000000000001
26.313000000000002	6.407	SP_W	1.0	n/a	n/a	1.0	3.623	Plaus/Plaus_run-02/stereo_PW39.wav	1.0	1	1.596
32.7344	6.8420000000000005	SP_I	2.0	n/a	n/a	2.0	3.582	Plaus/Plaus_run-02/stereo_PI44.wav	2.0	1	1.3849999999999998
39.5893	7.7	SP_C	1.0	n/a	n/a	1.0	0.637	Plaus/Plaus_run-02/CoM07e.wav	1.0	1	1.387
47.295	5.756	SP_S	1.0	n/a	n/a	1.0	2.344	Plaus/Plaus_run-02/stereo_PC03.wav	1.0	1	1.4020000000000001
53.0655	7.372000000000001	SP_S	1.0	n/a	n/a	1.0	3.187	Plaus/Plaus_run-02/stereo_PC82.wav	1.0	1	1.1319999999999997
60.4386	6.095	SP_C	1.0	n/a	n/a	1.0	1.056	Plaus/Plaus_run-02/CoM04d.wav	1.0	1	1.806
66.5431	6.303	SP_I	2.0	n/a	n/a	2.0	2.83	Plaus/Plaus_run-02/stereo_PI23.wav	2.0	1	1.8459999999999999
72.8488	5.655	SP_I	2.0	n/a	n/a	2.0	2.84	Plaus/Plaus_run-02/stereo_PI22.wav	2.0	1	1.9209999999999998
78.5141	6.85	SP_C	1.0	n/a	n/a	1.0	1.341	Plaus/Plaus_run-02/CoM08d.wav	1.0	1	2.091
85.3693	6.9179999999999975	SP_S	1.0	n/a	n/a	1.0	3.511	Plaus/Plaus_run-02/stereo_PC79.wav	1.0	1	1.2650000000000006
92.2921	5.233	SP_I	2.0	n/a	n/a	2.0	3.4330000000000003	Plaus/Plaus_run-02/stereo_PI21.wav	2.0	1	2.3930000000000007
97.5292	6.385	SP_S	1.0	n/a	n/a	2.0	3.2060000000000004	Plaus/Plaus_run-02/stereo_PC46.wav	2.0	0	2.2440000000000007
103.9184	6.282	SP_W	1.0	n/a	n/a	1.0	2.441	Plaus/Plaus_run-02/stereo_PW64.wav	1.0	1	1.335
110.2063	7.69	SP_C	1.0	n/a	n/a	1.0	4.254	Plaus/Plaus_run-02/CoM04e.wav	1.0	1	5.004
117.9072	6.316	SP_I	2.0	n/a	n/a	2.0	3.93	Plaus/Plaus_run-02/stereo_PI34.wav	2.0	1	1.7730000000000001
124.2283	5.47	SP_C	1.0	n/a	n/a	1.0	2.7110000000000003	Plaus/Plaus_run-02/CoM10b.wav	1.0	1	3.4610000000000003
129.7001	5.636	SP_I	2.0	n/a	n/a	2.0	2.458	Plaus/Plaus_run-02/stereo_PI55.wav	2.0	1	1.619
135.3387	7.461	SP_W	1.0	n/a	n/a	1.0	3.523	Plaus/Plaus_run-02/stereo_PW83.wav	1.0	1	1.5190000000000006
142.8107	5.48	SP_C	1.0	n/a	n/a	1.0	1.944	Plaus/Plaus_run-02/CoM01b.wav	1.0	1	2.694
148.298	6.2120000000000015	SP_W	1.0	n/a	n/a	1.0	2.722	Plaus/Plaus_run-02/stereo_PW08.wav	1.0	1	1.861
154.5192	4.694	SP_W	1.0	n/a	n/a	2.0	2.31	Plaus/Plaus_run-02/stereo_PW07.wav	2.0	0	1.435
159.2226	6.197	SP_I	2.0	1.0	0.213	n/a	n/a	Plaus/Plaus_run-02/stereo_PI43.wav	n/a	0	n/a
165.4272	6.1979999999999995	SP_S	1.0	n/a	n/a	1.0	3.885	Plaus/Plaus_run-02/stereo_PC59.wav	1.0	1	2.884
171.6318	7.345	SP_C	1.0	n/a	n/a	1.0	2.464	Plaus/Plaus_run-02/CoM05l.wav	1.0	1	3.214
178.9871	5.2429999999999986	SP_S	1.0	n/a	n/a	1.0	2.23	Plaus/Plaus_run-02/stereo_PC02.wav	1.0	1	1.351
184.2409	6.82	SP_C	1.0	n/a	n/a	1.0	0.662	Plaus/Plaus_run-02/CoM09l.wav	1.0	1	1.412
191.0636	7.183	SP_I	2.0	n/a	n/a	2.0	3.445	Plaus/Plaus_run-02/stereo_PI78.wav	2.0	1	1.5269999999999997
198.2522	6.727	SP_W	1.0	n/a	n/a	1.0	3.887	Plaus/Plaus_run-02/stereo_PW40.wav	1.0	1	1.654
204.9904	5.181	SP_S	1.0	n/a	n/a	1.0	2.648	Plaus/Plaus_run-02/stereo_PC60.wav	1.0	1	1.358
210.1775	7.135	SP_W	1.0	n/a	n/a	1.0	3.2439999999999998	Plaus/Plaus_run-02/stereo_PW73.wav	1.0	1	1.3119999999999998
217.3172	6.76	SP_C	1.0	n/a	n/a	1.0	4.257	Plaus/Plaus_run-02/CoM04l.wav	1.0	1	5.007
224.0887	6.682	SP_I	2.0	n/a	n/a	2.0	3.5989999999999998	Plaus/Plaus_run-02/stereo_PI75.wav	2.0	1	1.6030000000000002
230.7769	6.002999999999999	SP_W	1.0	n/a	n/a	2.0	3.0869999999999997	Plaus/Plaus_run-02/stereo_PW63.wav	2.0	0	1.9400000000000002
236.7825	5.0760000000000005	SP_W	1.0	n/a	n/a	1.0	2.859	Plaus/Plaus_run-02/stereo_PW05.wav	1.0	1	2.081
241.8694	6.218	SP_S	1.0	n/a	n/a	1.0	3.557	Plaus/Plaus_run-02/stereo_PC69.wav	1.0	1	1.3200000000000003
248.0918	6.569	SP_S	1.0	n/a	n/a	1.0	3.3510000000000004	Plaus/Plaus_run-02/stereo_PC70.wav	1.0	1	1.4750000000000005
