onset	duration	trial_type	correct	window1_response	window1_RT	window2_response	window2_RT	stim_file	calculated_response	calculated_accuracy	calculated_RT
1.0924	3.5	P_R	1.0	n/a	n/a	1.0	1.472	Phon/Phon_run-02/stereo_PR20.wav	1.0	1	1.222
4.595	4.235	P_O	1.0	n/a	n/a	1.0	1.338	Phon/Phon_run-02/PC034.wav	1.0	1	1.088
8.8325	3.375	P_R	1.0	n/a	n/a	1.0	1.2209999999999999	Phon/Phon_run-02/stereo_PR13.wav	1.0	1	0.9710000000000001
12.2183	3.474	P_C	1.0	n/a	n/a	1.0	0.29600000000000004	Phon/Phon_run-02/ContS12.wav	1.0	1	1.046
15.7041	3.875	P_U	2.0	n/a	n/a	2.0	1.229	Phon/Phon_run-02/PM025.wav	2.0	1	0.9790000000000001
19.5903	3.726	P_R	1.0	n/a	n/a	1.0	1.558	Phon/Phon_run-02/stereo_PR22.wav	1.0	1	1.308
23.3263	3.451	P_O	1.0	n/a	n/a	n/a	n/a	Phon/Phon_run-02/PC014.wav	n/a	0	n/a
26.7799	3.779	P_C	1.0	n/a	n/a	1.0	1.0759999999999998	Phon/Phon_run-02/ContS02.wav	1.0	1	1.8259999999999998
30.566	3.821	P_U	2.0	n/a	n/a	2.0	1.206	Phon/Phon_run-02/stereo_PU18.wav	2.0	1	0.956
34.402	3.49	P_U	2.0	n/a	n/a	2.0	1.906	Phon/Phon_run-02/stereo_PU12.wav	2.0	1	1.656
37.9046	4.38	P_C	1.0	n/a	n/a	1.0	0.684	Phon/Phon_run-02/ContS32.wav	1.0	1	1.4340000000000002
42.291000000000004	4.0969999999999995	P_R	1.0	n/a	n/a	1.0	1.4709999999999999	Phon/Phon_run-02/stereo_PR16.wav	1.0	1	1.221
46.394	3.5	P_O	1.0	n/a	n/a	1.0	1.7	Phon/Phon_run-02/PC022.wav	1.0	1	1.45
49.8966	4.0760000000000005	P_R	1.0	n/a	n/a	1.0	1.235	Phon/Phon_run-02/stereo_PR08.wav	1.0	1	0.9850000000000001
53.983000000000004	3.5	P_O	1.0	n/a	n/a	n/a	n/a	Phon/Phon_run-02/PC028.wav	n/a	0	n/a
57.4856	3.5	P_U	2.0	n/a	n/a	2.0	1.6219999999999999	Phon/Phon_run-02/stereo_PU27.wav	2.0	1	1.372
60.9881	3.819	P_C	1.0	n/a	n/a	1.0	0.28	Phon/Phon_run-02/ContS06.wav	1.0	1	1.03
64.8086	4.25	P_O	1.0	n/a	n/a	1.0	1.202	Phon/Phon_run-02/PC031.wav	1.0	1	0.952
69.062	3.662	P_C	1.0	n/a	n/a	1.0	0.442	Phon/Phon_run-02/ContS36.wav	1.0	1	1.192
72.7312	3.823	P_O	1.0	n/a	n/a	1.0	1.899	Phon/Phon_run-02/PC023.wav	1.0	1	1.649
76.5674	4.323	P_C	1.0	n/a	n/a	1.0	0.7090000000000001	Phon/Phon_run-02/ContS24.wav	1.0	1	1.459
80.9038	3.865	P_U	2.0	n/a	n/a	2.0	1.412	Phon/Phon_run-02/PM004.wav	2.0	1	1.162
84.7733	3.875	P_O	1.0	n/a	n/a	1.0	2.343	Phon/Phon_run-02/PC007.wav	1.0	1	2.093
88.6594	4.25	P_U	2.0	n/a	n/a	2.0	1.641	Phon/Phon_run-02/PM011.wav	2.0	1	1.391
92.9126	4.362	P_C	1.0	n/a	n/a	1.0	0.252	Phon/Phon_run-02/ContS30.wav	1.0	1	1.002
97.2825	3.875	P_O	1.0	n/a	n/a	1.0	2.0069999999999997	Phon/Phon_run-02/PC030.wav	1.0	1	1.7570000000000001
101.1687	3.3360000000000003	P_R	1.0	n/a	n/a	1.0	1.633	Phon/Phon_run-02/stereo_PR05.wav	1.0	1	1.383
104.5077	4.113	P_U	2.0	n/a	n/a	2.0	2.165	Phon/Phon_run-02/stereo_PU01.wav	2.0	1	1.915
108.6273	4.1739999999999995	P_U	2.0	n/a	n/a	2.0	1.3940000000000001	Phon/Phon_run-02/PM029.wav	2.0	1	1.144
112.8137	3.4539999999999997	P_C	1.0	n/a	n/a	1.0	1.18	Phon/Phon_run-02/ContS08.wav	1.0	1	1.93
116.2828	3.446	P_R	1.0	n/a	n/a	n/a	n/a	Phon/Phon_run-02/stereo_PR30.wav	n/a	0	n/a
119.7352	3.85	P_R	1.0	n/a	n/a	1.0	2.114	Phon/Phon_run-02/stereo_PR07.wav	1.0	1	1.8639999999999999
123.588	3.438	P_U	2.0	n/a	n/a	2.0	1.46	Phon/Phon_run-02/stereo_PU02.wav	2.0	1	1.21
127.0406	3.915	P_C	1.0	n/a	n/a	1.0	0.639	Phon/Phon_run-02/ContS20.wav	1.0	1	1.389
130.9601	3.487	P_U	2.0	n/a	n/a	2.0	1.985	Phon/Phon_run-02/PM021.wav	2.0	1	1.735
134.46200000000002	3.965	P_C	1.0	n/a	n/a	1.0	0.557	Phon/Phon_run-02/ContS26.wav	1.0	1	1.307
138.4315	3.792	P_R	1.0	n/a	n/a	2.0	1.765	Phon/Phon_run-02/stereo_PR31.wav	2.0	0	1.515
142.2343	4.135	P_O	1.0	n/a	n/a	1.0	1.963	Phon/Phon_run-02/PC024.wav	1.0	1	1.713
146.3717	3.875	P_U	2.0	n/a	n/a	2.0	1.78	Phon/Phon_run-02/PM010.wav	2.0	1	1.53
150.2579	3.875	P_O	1.0	n/a	n/a	1.0	1.936	Phon/Phon_run-02/PC015.wav	1.0	1	1.686
154.144	4.245	P_C	1.0	n/a	n/a	1.0	1.115	Phon/Phon_run-02/ContS14.wav	1.0	1	1.865
158.3971	3.854	P_R	1.0	n/a	n/a	1.0	1.8130000000000002	Phon/Phon_run-02/stereo_PR14.wav	1.0	1	1.563
162.2662	4.239	P_O	1.0	n/a	n/a	1.0	2.59	Phon/Phon_run-02/PC008.wav	1.0	1	2.34
166.5192	4.25	P_U	2.0	n/a	n/a	2.0	1.188	Phon/Phon_run-02/stereo_PU11.wav	2.0	1	0.938
170.7726	3.523	P_C	1.0	n/a	n/a	1.0	0.674	Phon/Phon_run-02/ContS18.wav	1.0	1	1.424
174.3085	3.429	P_O	1.0	n/a	n/a	1.0	1.3630000000000002	Phon/Phon_run-02/PC006.wav	1.0	1	1.1130000000000002
177.7443	4.18	P_R	1.0	n/a	n/a	1.0	2.0069999999999997	Phon/Phon_run-02/stereo_PR32.wav	1.0	1	1.7570000000000001
181.9307	4.104	P_R	1.0	n/a	n/a	1.0	2.362	Phon/Phon_run-02/stereo_PR24.wav	1.0	1	2.112
