onset	duration	trial_type	correct	window1_response	window1_RT	window2_response	window2_RT	stim_file	calculated_response	calculated_accuracy	calculated_RT
1.0918	4.2	S_U	2.0	n/a	n/a	2.0	1.71	Sem/Sem_run-01/stereo_1SU41A0.wav	2.0	1	1.46
5.2953	3.596	S_C	1.0	n/a	n/a	1.0	1.538	Sem/Sem_run-01/ContS29.wav	1.0	1	2.2880000000000003
8.898	3.425	S_U	2.0	n/a	n/a	2.0	1.585	Sem/Sem_run-01/stereo_2SU87A0.wav	2.0	1	1.335
12.3338	3.933	S_H	1.0	n/a	n/a	1.0	1.46	Sem/Sem_run-01/stereo_1SH13A0.wav	1.0	1	1.21
16.2699	4.323	S_H	1.0	n/a	n/a	1.0	1.148	Sem/Sem_run-01/stereo_1SH05A0.wav	1.0	1	0.8979999999999999
20.6064	4.073	S_C	1.0	n/a	n/a	1.0	0.09300000000000001	Sem/Sem_run-01/ContS31.wav	1.0	1	0.843
24.6927	3.869	S_L	1.0	n/a	n/a	1.0	0.777	Sem/Sem_run-01/stereo_2SL63A0.wav	1.0	1	0.527
28.5634	3.75	S_L	1.0	n/a	n/a	1.0	0.893	Sem/Sem_run-01/stereo_1SL29A0.wav	1.0	1	0.643
32.3161	4.3660000000000005	S_U	2.0	n/a	n/a	2.0	1.722	Sem/Sem_run-01/stereo_2SU78A0.wav	2.0	1	1.472
36.6859	3.3	S_L	1.0	n/a	n/a	1.0	1.203	Sem/Sem_run-01/stereo_1SL17A0.wav	1.0	1	0.953
39.9885	3.884	S_C	1.0	n/a	n/a	1.0	0.502	Sem/Sem_run-01/ContS05.wav	1.0	1	1.252
43.8755	4.371	S_H	1.0	n/a	n/a	1.0	0.8029999999999999	Sem/Sem_run-01/stereo_2SH58A0.wav	1.0	1	0.5529999999999999
48.2606	4.329	S_L	1.0	n/a	n/a	1.0	0.8859999999999999	Sem/Sem_run-01/stereo_2SL72A0.wav	1.0	1	0.6359999999999999
52.5971	3.94	S_H	1.0	n/a	n/a	1.0	1.135	Sem/Sem_run-01/stereo_2SH57A0.wav	1.0	1	0.885
56.55	4.2	S_U	2.0	n/a	n/a	2.0	1.347	Sem/Sem_run-01/stereo_2SU83A0.wav	2.0	1	1.097
60.753	3.474	S_C	1.0	n/a	n/a	1.0	0.9570000000000001	Sem/Sem_run-01/ContS11.wav	1.0	1	1.707
64.2389	4.271	S_L	1.0	n/a	n/a	1.0	1.124	Sem/Sem_run-01/stereo_1SL26A0.wav	1.0	1	0.8740000000000001
68.5248	3.91	S_L	1.0	n/a	n/a	1.0	1.2429999999999999	Sem/Sem_run-01/stereo_1SL25A0.wav	1.0	1	0.993
72.4443	4.479	S_C	1.0	n/a	n/a	1.0	0.423	Sem/Sem_run-01/ContS25.wav	1.0	1	1.173
76.9309	3.378	S_U	2.0	n/a	n/a	2.0	1.534	Sem/Sem_run-01/stereo_2SU81A0.wav	2.0	1	1.284
80.3167	3.42	S_L	1.0	n/a	n/a	1.0	2.106	Sem/Sem_run-01/stereo_1SL27A0.wav	1.0	1	1.8559999999999999
83.7479	4.3439999999999985	S_L	1.0	n/a	n/a	1.0	1.5319999999999998	Sem/Sem_run-01/stereo_1SL30A0.wav	1.0	1	1.2819999999999998
88.1008	3.909	S_L	1.0	n/a	n/a	1.0	1.379	Sem/Sem_run-01/stereo_2SL71A0.wav	1.0	1	1.129
92.0205	3.867	S_H	1.0	n/a	n/a	1.0	1.999	Sem/Sem_run-01/stereo_1SH04A0.wav	1.0	1	1.749
95.8902	3.828	S_U	2.0	n/a	n/a	2.0	1.511	Sem/Sem_run-01/stereo_1SU37A0.wav	2.0	1	1.261
99.7264	4.565	S_C	1.0	n/a	n/a	1.0	0.57	Sem/Sem_run-01/ContS35.wav	1.0	1	1.3199999999999998
104.2964	3.3	S_U	2.0	n/a	n/a	2.0	1.6480000000000001	Sem/Sem_run-01/stereo_1SU35A0.wav	2.0	1	1.3980000000000001
107.5986	3.477	S_L	1.0	n/a	n/a	1.0	1.913	Sem/Sem_run-01/stereo_2SL65A0.wav	1.0	1	1.663
111.0845	3.83	S_H	1.0	n/a	n/a	1.0	1.4240000000000002	Sem/Sem_run-01/stereo_1SH07A0.wav	1.0	1	1.1740000000000002
114.9207	4.3439999999999985	S_C	1.0	n/a	n/a	1.0	0.47100000000000003	Sem/Sem_run-01/ContS07.wav	1.0	1	1.221
119.2738	3.5	S_H	1.0	n/a	n/a	1.0	1.256	Sem/Sem_run-01/stereo_1SH03A0.wav	1.0	1	1.006
122.7765	3.919	S_U	2.0	n/a	n/a	2.0	1.604	Sem/Sem_run-01/stereo_1SU45A0.wav	2.0	1	1.354
126.697	3.5	S_H	1.0	n/a	n/a	1.0	1.446	Sem/Sem_run-01/stereo_1SH06A0.wav	1.0	1	1.196
130.1996	3.392	S_L	1.0	n/a	n/a	1.0	1.4680000000000002	Sem/Sem_run-01/stereo_2SL62A0.wav	1.0	1	1.2180000000000002
133.6021	3.54	S_C	1.0	n/a	n/a	1.0	0.299	Sem/Sem_run-01/ContS19.wav	1.0	1	1.0490000000000002
137.1547	4.4	S_H	1.0	n/a	n/a	1.0	1.642	Sem/Sem_run-01/stereo_1SH15A0.wav	1.0	1	1.392
141.5578	3.342	S_H	1.0	n/a	n/a	1.0	1.3519999999999999	Sem/Sem_run-01/stereo_1SH11A0.wav	1.0	1	1.102
144.9103	3.385	S_U	2.0	n/a	n/a	2.0	1.486	Sem/Sem_run-01/stereo_1SU44A0.wav	2.0	1	1.236
148.2972	3.4160000000000004	S_H	1.0	n/a	n/a	1.0	1.561	Sem/Sem_run-01/stereo_2SH56A0.wav	1.0	1	1.311
151.7164	3.849	S_U	2.0	n/a	n/a	2.0	1.828	Sem/Sem_run-01/stereo_2SU82A0.wav	2.0	1	1.578
155.5691	3.934	S_C	1.0	n/a	n/a	1.0	0.359	Sem/Sem_run-01/ContS13.wav	1.0	1	1.109
159.506	4.309	S_L	1.0	n/a	n/a	1.0	1.421	Sem/Sem_run-01/stereo_2SL64A0.wav	1.0	1	1.171
163.8257	4.413	S_C	1.0	n/a	n/a	1.0	1.158	Sem/Sem_run-01/ContS17.wav	1.0	1	1.908
168.2456	4.2	S_U	2.0	n/a	n/a	2.0	1.9969999999999999	Sem/Sem_run-01/stereo_2SU90A0.wav	2.0	1	1.7469999999999999
172.4489	3.846	S_U	2.0	n/a	n/a	2.0	1.534	Sem/Sem_run-01/stereo_2SU88A0.wav	2.0	1	1.284
176.3017	3.3939999999999997	S_C	1.0	n/a	n/a	1.0	0.242	Sem/Sem_run-01/ContS01.wav	1.0	1	0.992
179.7041	4.013	S_C	1.0	n/a	n/a	1.0	0.406	Sem/Sem_run-01/ContS23.wav	1.0	1	1.156
183.7237	4.227	S_H	1.0	n/a	n/a	1.0	1.875	Sem/Sem_run-01/stereo_1SH08A0.wav	1.0	1	1.625
