onset	duration	trial_type	correct	window1_response	window1_RT	window2_response	window2_RT	stim_file	calculated_response	calculated_accuracy	calculated_RT
1.084	7.632999999999999	G_P	2.0	n/a	n/a	2.0	4.4110000000000005	Gram/Gram_run-02/stereo_1MP45U4.wav	2.0	1	2.2800000000000002
8.722999999999999	7.315	G_F	2.0	n/a	n/a	2.0	4.033	Gram/Gram_run-02/stereo_1MF20U4.wav	2.0	1	3.323
16.045	6.2829999999999995	G_P	2.0	n/a	n/a	2.0	3.279	Gram/Gram_run-02/stereo_1MP34U2.wav	2.0	1	2.187
22.333000000000002	6.195	G_C	1.0	n/a	n/a	1.0	0.212	Gram/Gram_run-02/CoM06d.wav	1.0	1	0.962
28.538	6.221	G_G	1.0	n/a	n/a	1.0	3.387	Gram/Gram_run-02/stereo_1MF02G1.wav	1.0	1	1.347
34.76	5.801	G_F	2.0	n/a	n/a	2.0	3.159	Gram/Gram_run-02/stereo_2MF64U3.wav	2.0	1	3.909
40.564	6.78	G_C	1.0	n/a	n/a	1.0	0.107	Gram/Gram_run-02/CoM07l.wav	1.0	1	0.857
47.352	6.084	G_F	2.0	n/a	n/a	2.0	3.2939999999999996	Gram/Gram_run-02/stereo_2MF56U2.wav	2.0	1	4.044
53.44	7.5470000000000015	G_F	2.0	n/a	n/a	2.0	3.4410000000000003	Gram/Gram_run-02/stereo_1MF21U4.wav	2.0	1	2.6900000000000004
60.996	6.482	G_G	1.0	n/a	n/a	1.0	3.752	Gram/Gram_run-02/stereo_1MF24G4.wav	1.0	1	1.391
67.484	6.7810000000000015	G_P	2.0	n/a	n/a	2.0	4.521	Gram/Gram_run-02/stereo_2MP76U1.wav	2.0	1	2.2590000000000003
74.273	6.643	G_P	2.0	n/a	n/a	2.0	3.28	Gram/Gram_run-02/stereo_2MP80U2.wav	2.0	1	2.324
80.928	7.69	G_C	1.0	n/a	n/a	1.0	0.345	Gram/Gram_run-02/CoM06e.wav	1.0	1	1.095
88.634	6.352	G_F	2.0	n/a	n/a	2.0	4.489	Gram/Gram_run-02/stereo_2MF63U3.wav	2.0	1	5.239
94.98899999999999	5.801	G_G	1.0	n/a	n/a	1.0	3.634	Gram/Gram_run-02/stereo_1MF18G3.wav	1.0	1	2.251
100.79299999999999	7.1129999999999995	G_P	2.0	n/a	n/a	2.0	4.158	Gram/Gram_run-02/stereo_1MP44U4.wav	2.0	1	1.8010000000000002
107.915	6.78	G_C	1.0	n/a	n/a	1.0	0.22399999999999998	Gram/Gram_run-02/CoM05b.wav	1.0	1	0.974
114.704	6.7360000000000015	G_F	2.0	n/a	n/a	2.0	3.832	Gram/Gram_run-02/stereo_2MF58U2.wav	2.0	1	4.582
121.44200000000001	6.0889999999999995	G_P	2.0	n/a	n/a	2.0	3.2939999999999996	Gram/Gram_run-02/stereo_2MP87U3.wav	2.0	1	2.082
127.54700000000001	7.637	G_P	2.0	n/a	n/a	2.0	4.261	Gram/Gram_run-02/stereo_2MP73U1.wav	2.0	1	2.234
135.186	7.305	G_C	1.0	1.0	0.669	1.0	2.4419999999999997	Gram/Gram_run-02/CoM02l.wav	1.0	1	0.669
142.49200000000005	5.983	G_G	1.0	n/a	n/a	1.0	3.262	Gram/Gram_run-02/stereo_1MP42G3.wav	1.0	1	2.34
148.47899999999996	5.36	G_P	2.0	n/a	n/a	2.0	3.0839999999999996	Gram/Gram_run-02/stereo_1MP32U2.wav	2.0	1	2.0779999999999994
153.85	7.145	G_C	1.0	n/a	n/a	1.0	0.09699999999999999	Gram/Gram_run-02/CoM09e.wav	1.0	1	0.847
161.006	6.28	G_F	2.0	n/a	n/a	2.0	4.2810000000000015	Gram/Gram_run-02/stereo_1MF19U4.wav	2.0	1	3.5950000000000015
167.294	6.63	G_C	1.0	n/a	n/a	1.0	0.08	Gram/Gram_run-02/CoM07b.wav	1.0	1	0.83
173.93200000000004	7.195	G_G	1.0	n/a	n/a	1.0	4.591	Gram/Gram_run-02/stereo_2MP89G3.wav	1.0	1	3.253
181.138	5.1739999999999995	G_F	2.0	n/a	n/a	2.0	3.4810000000000003	Gram/Gram_run-02/stereo_1MF07U2.wav	2.0	1	4.231
186.325	6.944	G_P	2.0	n/a	n/a	2.0	3.694	Gram/Gram_run-02/stereo_2MP88U3.wav	2.0	1	2.651
193.28	6.0889999999999995	G_G	1.0	n/a	n/a	1.0	3.273	Gram/Gram_run-02/stereo_2MF66G3.wav	1.0	1	1.8990000000000005
199.385	6.5	G_C	1.0	1.0	0.716	1.0	2.592	Gram/Gram_run-02/CoM01e.wav	1.0	1	0.716
205.89	6.43	G_P	2.0	n/a	n/a	2.0	4.3469999999999995	Gram/Gram_run-02/stereo_1MP43U4.wav	2.0	1	2.0649999999999995
212.328	6.19	G_G	1.0	n/a	n/a	1.0	3.219	Gram/Gram_run-02/stereo_2MP84G2.wav	1.0	1	2.287
218.533	7.114	G_G	1.0	n/a	n/a	1.0	3.8819999999999997	Gram/Gram_run-02/stereo_1MP29G1.wav	1.0	1	1.6939999999999995
225.655	6.731	G_F	2.0	n/a	n/a	1.0	4.113	Gram/Gram_run-02/stereo_2MF53U1.wav	1.0	0	3.5420000000000003
232.393	6.015	G_C	1.0	n/a	n/a	1.0	0.214	Gram/Gram_run-02/CoM02d.wav	1.0	1	0.964
238.415	7.17	G_G	1.0	n/a	n/a	1.0	4.2330000000000005	Gram/Gram_run-02/stereo_2MF71G4.wav	1.0	1	1.984
245.58700000000002	5.33	G_C	1.0	n/a	n/a	1.0	0.21899999999999997	Gram/Gram_run-02/CoM06b.wav	1.0	1	0.969
250.924	6.9689999999999985	G_F	2.0	n/a	n/a	2.0	3.585	Gram/Gram_run-02/stereo_2MF54U1.wav	2.0	1	3.015
257.89599999999996	7.6	G_G	1.0	n/a	n/a	1.0	4.3919999999999995	Gram/Gram_run-02/stereo_2MF49G1.wav	1.0	1	2.2029999999999994
