onset	duration	trial_type	correct	window1_response	window1_RT	window2_response	window2_RT	stim_file	calculated_response	calculated_accuracy	calculated_RT
1.0918	4.2	S_U	2.0	n/a	n/a	1.0	1.099	Sem/Sem_run-01/stereo_1SU41A0.wav	1.0	0	0.849
5.2953	3.596	S_C	1.0	n/a	n/a	1.0	0.696	Sem/Sem_run-01/ContS29.wav	1.0	1	1.446
8.898	3.425	S_U	2.0	n/a	n/a	1.0	1.868	Sem/Sem_run-01/stereo_2SU87A0.wav	1.0	0	1.618
12.3338	3.933	S_H	1.0	n/a	n/a	1.0	1.9569999999999999	Sem/Sem_run-01/stereo_1SH13A0.wav	1.0	1	1.7069999999999999
16.2699	4.323	S_H	1.0	n/a	n/a	1.0	1.107	Sem/Sem_run-01/stereo_1SH05A0.wav	1.0	1	0.857
20.6064	4.073	S_C	1.0	n/a	n/a	1.0	0.52	Sem/Sem_run-01/ContS31.wav	1.0	1	1.27
24.6927	3.869	S_L	1.0	n/a	n/a	2.0	1.4380000000000002	Sem/Sem_run-01/stereo_2SL63A0.wav	2.0	0	1.1880000000000002
28.5634	3.75	S_L	1.0	n/a	n/a	2.0	2.51	Sem/Sem_run-01/stereo_1SL29A0.wav	2.0	0	2.26
32.3161	4.3660000000000005	S_U	2.0	n/a	n/a	2.0	1.949	Sem/Sem_run-01/stereo_2SU78A0.wav	2.0	1	1.699
36.6859	3.3	S_L	1.0	n/a	n/a	1.0	1.651	Sem/Sem_run-01/stereo_1SL17A0.wav	1.0	1	1.401
39.9885	3.884	S_C	1.0	n/a	n/a	1.0	1.28	Sem/Sem_run-01/ContS05.wav	1.0	1	2.0300000000000002
43.8755	4.371	S_H	1.0	n/a	n/a	1.0	1.662	Sem/Sem_run-01/stereo_2SH58A0.wav	1.0	1	1.412
48.2606	4.329	S_L	1.0	n/a	n/a	1.0	1.6680000000000001	Sem/Sem_run-01/stereo_2SL72A0.wav	1.0	1	1.4180000000000001
52.5971	3.94	S_H	1.0	n/a	n/a	2.0	1.587	Sem/Sem_run-01/stereo_2SH57A0.wav	2.0	0	1.337
56.55	4.2	S_U	2.0	n/a	n/a	1.0	1.5119999999999998	Sem/Sem_run-01/stereo_2SU83A0.wav	1.0	0	1.2619999999999998
60.753	3.474	S_C	1.0	n/a	n/a	1.0	0.578	Sem/Sem_run-01/ContS11.wav	1.0	1	1.3279999999999998
64.2389	4.271	S_L	1.0	n/a	n/a	1.0	1.452	Sem/Sem_run-01/stereo_1SL26A0.wav	1.0	1	1.202
68.5248	3.91	S_L	1.0	n/a	n/a	1.0	1.808	Sem/Sem_run-01/stereo_1SL25A0.wav	1.0	1	1.558
72.4443	4.479	S_C	1.0	n/a	n/a	1.0	0.332	Sem/Sem_run-01/ContS25.wav	1.0	1	1.082
76.9309	3.378	S_U	2.0	n/a	n/a	2.0	0.8290000000000001	Sem/Sem_run-01/stereo_2SU81A0.wav	2.0	1	0.5790000000000001
80.3167	3.42	S_L	1.0	n/a	n/a	1.0	1.246	Sem/Sem_run-01/stereo_1SL27A0.wav	1.0	1	0.996
83.7479	4.3439999999999985	S_L	1.0	n/a	n/a	2.0	0.205	Sem/Sem_run-01/stereo_1SL30A0.wav	n/a	0	n/a
88.1008	3.909	S_L	1.0	n/a	n/a	1.0	1.403	Sem/Sem_run-01/stereo_2SL71A0.wav	1.0	1	1.153
92.0205	3.867	S_H	1.0	n/a	n/a	1.0	1.105	Sem/Sem_run-01/stereo_1SH04A0.wav	1.0	1	0.855
95.8902	3.828	S_U	2.0	n/a	n/a	1.0	1.2570000000000001	Sem/Sem_run-01/stereo_1SU37A0.wav	1.0	0	1.0070000000000001
99.7264	4.565	S_C	1.0	n/a	n/a	2.0	1.984	Sem/Sem_run-01/ContS35.wav	2.0	0	2.734
104.2964	3.3	S_U	2.0	n/a	n/a	1.0	1.2930000000000001	Sem/Sem_run-01/stereo_1SU35A0.wav	1.0	0	1.0430000000000001
107.5986	3.477	S_L	1.0	n/a	n/a	1.0	1.7690000000000001	Sem/Sem_run-01/stereo_2SL65A0.wav	1.0	1	1.5190000000000001
111.0845	3.83	S_H	1.0	n/a	n/a	1.0	1.22	Sem/Sem_run-01/stereo_1SH07A0.wav	1.0	1	0.97
114.9207	4.3439999999999985	S_C	1.0	n/a	n/a	1.0	0.838	Sem/Sem_run-01/ContS07.wav	1.0	1	1.588
119.2738	3.5	S_H	1.0	n/a	n/a	1.0	1.094	Sem/Sem_run-01/stereo_1SH03A0.wav	1.0	1	0.8440000000000001
122.7765	3.919	S_U	2.0	n/a	n/a	2.0	1.614	Sem/Sem_run-01/stereo_1SU45A0.wav	2.0	1	1.364
126.697	3.5	S_H	1.0	n/a	n/a	1.0	1.261	Sem/Sem_run-01/stereo_1SH06A0.wav	1.0	1	1.011
130.1996	3.392	S_L	1.0	n/a	n/a	1.0	1.347	Sem/Sem_run-01/stereo_2SL62A0.wav	1.0	1	1.097
133.6021	3.54	S_C	1.0	n/a	n/a	1.0	1.148	Sem/Sem_run-01/ContS19.wav	1.0	1	1.898
137.1547	4.4	S_H	1.0	n/a	n/a	2.0	1.317	Sem/Sem_run-01/stereo_1SH15A0.wav	2.0	0	1.067
141.5578	3.342	S_H	1.0	n/a	n/a	1.0	0.893	Sem/Sem_run-01/stereo_1SH11A0.wav	1.0	1	0.643
144.9103	3.385	S_U	2.0	n/a	n/a	2.0	1.838	Sem/Sem_run-01/stereo_1SU44A0.wav	2.0	1	1.588
148.2972	3.4160000000000004	S_H	1.0	n/a	n/a	1.0	1.2930000000000001	Sem/Sem_run-01/stereo_2SH56A0.wav	1.0	1	1.0430000000000001
151.7164	3.849	S_U	2.0	n/a	n/a	2.0	2.374	Sem/Sem_run-01/stereo_2SU82A0.wav	2.0	1	2.124
155.5691	3.934	S_C	1.0	n/a	n/a	1.0	0.479	Sem/Sem_run-01/ContS13.wav	1.0	1	1.229
159.506	4.309	S_L	1.0	n/a	n/a	1.0	0.937	Sem/Sem_run-01/stereo_2SL64A0.wav	1.0	1	0.687
163.8257	4.413	S_C	1.0	n/a	n/a	1.0	1.018	Sem/Sem_run-01/ContS17.wav	1.0	1	1.768
168.2456	4.2	S_U	2.0	n/a	n/a	2.0	1.22	Sem/Sem_run-01/stereo_2SU90A0.wav	2.0	1	0.97
172.4489	3.846	S_U	2.0	n/a	n/a	1.0	1.23	Sem/Sem_run-01/stereo_2SU88A0.wav	1.0	0	0.98
176.3017	3.3939999999999997	S_C	1.0	n/a	n/a	2.0	1.9140000000000001	Sem/Sem_run-01/ContS01.wav	2.0	0	2.664
179.7041	4.013	S_C	1.0	n/a	n/a	2.0	1.3030000000000002	Sem/Sem_run-01/ContS23.wav	2.0	0	2.053
183.7237	4.227	S_H	1.0	n/a	n/a	1.0	1.16	Sem/Sem_run-01/stereo_1SH08A0.wav	1.0	1	0.9099999999999999
