onset	duration	trial_type	correct	window1_response	window1_RT	window2_response	window2_RT	stim_file	calculated_response	calculated_accuracy	calculated_RT
1.0915	6.895	G_F	2.0	n/a	n/a	2.0	3.605	Gram/Gram_run-01/stereo_2MF57U2.wav	2.0	1	4.355
7.9964	7.175	G_F	2.0	n/a	n/a	2.0	3.6489999999999996	Gram/Gram_run-01/stereo_1MF15U3.wav	2.0	1	4.399
15.1851	6.5070000000000014	G_G	1.0	n/a	n/a	2.0	4.09	Gram/Gram_run-01/stereo_1MF11G2.wav	2.0	0	2.9099999999999997
21.7065	6.505	G_C	1.0	n/a	n/a	1.0	1.136	Gram/Gram_run-01/CoM09d.wav	1.0	1	1.886
28.2123	6.9479999999999995	G_F	2.0	n/a	n/a	1.0	4.574	Gram/Gram_run-01/stereo_2MF68U4.wav	1.0	0	3.848
35.1675	5.541	G_P	2.0	n/a	n/a	n/a	n/a	Gram/Gram_run-01/stereo_1MP37U3.wav	2.0	1	3.8870000000000005
40.7217	5.9479999999999995	G_G	1.0	2.0	0.131	1.0	4.7139999999999995	Gram/Gram_run-01/stereo_2MF50G1.wav	1.0	1	2.6190000000000007
46.6761	6.013	G_F	2.0	n/a	n/a	2.0	3.5410000000000004	Gram/Gram_run-01/stereo_1MF05U1.wav	2.0	1	2.9390000000000005
52.6972	7.87	G_C	1.0	n/a	n/a	1.0	0.652	Gram/Gram_run-01/CoM01l.wav	1.0	1	1.4020000000000001
60.5705	6.4979999999999976	G_G	1.0	n/a	n/a	n/a	n/a	Gram/Gram_run-01/stereo_1MF23G4.wav	n/a	0	n/a
67.0753	6.184	G_F	2.0	2.0	0.201	2.0	3.634	Gram/Gram_run-01/stereo_2MF55U2.wav	2.0	1	0.201
73.264	6.83	G_C	1.0	n/a	n/a	1.0	0.5	Gram/Gram_run-01/CoM10l.wav	1.0	1	1.25
80.1023	7.505	G_G	1.0	n/a	n/a	1.0	5.4910000000000005	Gram/Gram_run-01/stereo_2MP96G4.wav	1.0	1	3.096000000000001
87.6086	7.1370000000000005	G_G	1.0	n/a	n/a	n/a	n/a	Gram/Gram_run-01/stereo_1MP47G4.wav	n/a	0	n/a
94.748	6.694	G_F	2.0	2.0	0.034	2.0	3.24	Gram/Gram_run-01/stereo_2MF61U3.wav	2.0	1	0.034
101.4529	5.39	G_C	1.0	n/a	n/a	1.0	1.8619999999999999	Gram/Gram_run-01/CoM01d.wav	1.0	1	2.612
106.8569	6.5760000000000005	G_G	1.0	n/a	n/a	1.0	4.335	Gram/Gram_run-01/stereo_1MP35G2.wav	1.0	1	3.331
113.4451	5.3389999999999995	G_F	2.0	n/a	n/a	n/a	n/a	Gram/Gram_run-01/stereo_2MF69U4.wav	n/a	0	n/a
118.7989	7.94	G_C	1.0	1.0	0.57	1.0	1.051	Gram/Gram_run-01/CoM08l.wav	1.0	1	0.57
126.7476	6.006	G_P	2.0	n/a	n/a	2.0	4.436	Gram/Gram_run-01/stereo_1MP26U1.wav	2.0	1	2.46
132.7683	8.422	G_F	2.0	n/a	n/a	2.0	3.714	Gram/Gram_run-01/stereo_1MF06U1.wav	2.0	1	3.1189999999999998
141.1919	7.885	G_P	2.0	n/a	n/a	2.0	3.62	Gram/Gram_run-01/stereo_2MP81U2.wav	2.0	1	2.735
149.082	6.1270000000000024	G_G	1.0	n/a	n/a	n/a	n/a	Gram/Gram_run-01/stereo_2MP83G2.wav	n/a	0	n/a
155.2198	5.765	G_C	1.0	n/a	n/a	1.0	1.1320000000000001	Gram/Gram_run-01/CoM02b.wav	1.0	1	1.882
160.9908	6.706	G_P	2.0	n/a	n/a	2.0	5.185	Gram/Gram_run-01/stereo_2MP93U4.wav	2.0	1	2.785
167.7098	6.61	G_P	2.0	n/a	n/a	2.0	5.117	Gram/Gram_run-01/stereo_1MP28U1.wav	2.0	1	3.0020000000000007
174.3313	6.63	G_C	1.0	n/a	n/a	1.0	1.4709999999999999	Gram/Gram_run-01/CoM04b.wav	1.0	1	2.221
180.9695	5.665	G_P	2.0	n/a	n/a	n/a	n/a	Gram/Gram_run-01/stereo_1MP27U1.wav	2.0	1	3.1820000000000004
186.6404	7.55	G_G	1.0	2.0	0.26899999999999996	n/a	n/a	Gram/Gram_run-01/stereo_2MP77G1.wav	n/a	0	n/a
194.1961	6.51	G_C	1.0	n/a	n/a	1.0	1.171	Gram/Gram_run-01/CoM03e.wav	1.0	1	1.921
200.7177	6.98	G_P	2.0	n/a	n/a	2.0	5.284	Gram/Gram_run-01/stereo_2MP92U4.wav	2.0	1	2.9349999999999996
207.7062	7.047999999999999	G_G	1.0	n/a	n/a	1.0	3.7060000000000004	Gram/Gram_run-01/stereo_1MF12G2.wav	1.0	1	2.6719999999999997
214.7613	5.574	G_F	2.0	n/a	n/a	n/a	n/a	Gram/Gram_run-01/stereo_1MF04U1.wav	n/a	0	n/a
220.3488	5.67	G_C	1.0	1.0	0.645	1.0	2.885	Gram/Gram_run-01/CoM07d.wav	1.0	1	0.645
226.0205	6.6160000000000005	G_P	2.0	n/a	n/a	2.0	4.2410000000000005	Gram/Gram_run-01/stereo_1MP39U3.wav	2.0	1	3.2370000000000005
232.6421	5.695	G_P	2.0	n/a	n/a	2.0	3.673	Gram/Gram_run-01/stereo_2MP82U2.wav	2.0	1	2.7520000000000002
238.3464	6.6270000000000024	G_F	2.0	n/a	n/a	1.0	3.9939999999999998	Gram/Gram_run-01/stereo_1MF13U3.wav	1.0	0	4.744
244.9846	7.145	G_C	1.0	n/a	n/a	1.0	0.622	Gram/Gram_run-01/CoM08e.wav	1.0	1	1.3719999999999999
252.1398	6.805	G_G	1.0	n/a	n/a	2.0	4.023	Gram/Gram_run-01/stereo_1MP41G3.wav	2.0	0	2.7169999999999996
258.9458	7.519	G_P	2.0	n/a	n/a	2.0	3.55	Gram/Gram_run-01/stereo_1MP38U3.wav	2.0	1	2.311
