onset	duration	trial_type	correct	window1_response	window1_RT	window2_response	window2_RT	stim_file	calculated_response	calculated_accuracy	calculated_RT
1.084	4.2010000000000005	S_U	2.0	n/a	n/a	2.0	1.4680000000000002	Sem/Sem_run-02/stereo_1SU33A0.wav	2.0	1	1.2180000000000002
5.287000000000001	3.486	S_U	2.0	n/a	n/a	2.0	1.3030000000000002	Sem/Sem_run-02/stereo_2SU85A0.wav	2.0	1	1.0530000000000002
8.773	3.8539999999999996	S_H	1.0	n/a	n/a	1.0	1.186	Sem/Sem_run-02/stereo_2SH50A0.wav	1.0	1	0.9359999999999999
12.643	3.454	S_C	1.0	n/a	n/a	1.0	0.43200000000000005	Sem/Sem_run-02/ContS08.wav	1.0	1	1.1820000000000002
16.112000000000002	4.33	S_H	1.0	n/a	n/a	1.0	0.96	Sem/Sem_run-02/stereo_1SH10A0.wav	1.0	1	0.71
20.449	3.872	S_L	1.0	n/a	n/a	1.0	1.297	Sem/Sem_run-02/stereo_2SL61A0.wav	1.0	1	1.047
24.336	3.885	S_L	1.0	n/a	n/a	1.0	1.338	Sem/Sem_run-02/stereo_1SL23A0.wav	1.0	1	1.088
28.222	4.2	S_U	2.0	n/a	n/a	2.0	1.909	Sem/Sem_run-02/stereo_1SU42A0.wav	2.0	1	1.659
32.425	3.321	S_L	1.0	n/a	n/a	n/a	n/a	Sem/Sem_run-02/stereo_1SL16A0.wav	n/a	0	n/a
35.761	3.59	S_C	1.0	n/a	n/a	1.0	0.843	Sem/Sem_run-02/ContS26.wav	1.0	1	1.593
39.364	4.4	S_H	1.0	n/a	n/a	1.0	0.866	Sem/Sem_run-02/stereo_2SH60A0.wav	1.0	1	0.616
43.768	4.311	S_L	1.0	n/a	n/a	2.0	1.4380000000000002	Sem/Sem_run-02/stereo_2SL75A0.wav	2.0	0	1.1880000000000002
48.088	3.912	S_H	1.0	n/a	n/a	1.0	1.207	Sem/Sem_run-02/stereo_2SH59A0.wav	1.0	1	0.9570000000000001
52.008	4.4	S_U	2.0	n/a	n/a	1.0	1.535	Sem/Sem_run-02/stereo_2SU84A0.wav	1.0	0	1.285
56.411	3.4210000000000003	S_U	2.0	n/a	n/a	2.0	1.506	Sem/Sem_run-02/stereo_1SU43A0.wav	2.0	1	1.256
59.847	3.8539999999999996	S_C	1.0	n/a	n/a	1.0	1.6740000000000002	Sem/Sem_run-02/ContS02.wav	1.0	1	2.4240000000000004
63.717	4.37	S_L	1.0	n/a	n/a	1.0	1.156	Sem/Sem_run-02/stereo_1SL19A0.wav	1.0	1	0.9059999999999999
68.087	3.862	S_L	1.0	n/a	n/a	1.0	1.034	Sem/Sem_run-02/stereo_1SL18A0.wav	1.0	1	0.784
71.957	4.462	S_C	1.0	n/a	n/a	1.0	1.337	Sem/Sem_run-02/ContS22.wav	1.0	1	2.0869999999999997
76.42699999999998	3.406	S_L	1.0	n/a	n/a	1.0	1.003	Sem/Sem_run-02/stereo_1SL21A0.wav	1.0	1	0.7529999999999999
79.846	3.355	S_U	2.0	n/a	n/a	1.0	1.038	Sem/Sem_run-02/stereo_1SU36A0.wav	1.0	0	0.788
83.21600000000002	4.324	S_C	1.0	n/a	n/a	1.0	1.521	Sem/Sem_run-02/ContS04.wav	1.0	1	2.271
87.553	4.253	S_L	1.0	n/a	n/a	1.0	1.53	Sem/Sem_run-02/stereo_1SL24A0.wav	1.0	1	1.28
91.806	3.839	S_L	1.0	n/a	n/a	1.0	1.811	Sem/Sem_run-02/stereo_2SL70A0.wav	1.0	1	1.561
95.659	4.395	S_C	1.0	n/a	n/a	1.0	1.666	Sem/Sem_run-02/ContS14.wav	1.0	1	2.416
100.063	3.8739999999999997	S_H	1.0	n/a	n/a	1.0	1.119	Sem/Sem_run-02/stereo_1SH09A0.wav	1.0	1	0.869
103.949	3.75	S_U	2.0	n/a	n/a	2.0	1.579	Sem/Sem_run-02/stereo_1SU32A0.wav	2.0	1	1.329
107.702	3.641	S_C	1.0	n/a	n/a	1.0	1.1440000000000001	Sem/Sem_run-02/ContS34.wav	1.0	1	1.894
111.355	3.338	S_U	2.0	n/a	n/a	2.0	1.02	Sem/Sem_run-02/stereo_1SU31A0.wav	2.0	1	0.77
114.708	3.45	S_L	1.0	n/a	n/a	1.0	1.265	Sem/Sem_run-02/stereo_2SL68A0.wav	1.0	1	1.015
118.16	3.8510000000000004	S_H	1.0	n/a	n/a	1.0	1.115	Sem/Sem_run-02/stereo_1SH14A0.wav	1.0	1	0.865
122.013	3.459	S_H	1.0	n/a	n/a	1.0	1.1440000000000001	Sem/Sem_run-02/stereo_1SH01A0.wav	1.0	1	0.8939999999999999
125.483	3.512	S_C	1.0	n/a	n/a	1.0	1.4040000000000001	Sem/Sem_run-02/ContS16.wav	1.0	1	2.154
129.002	3.489	S_H	1.0	n/a	n/a	1.0	1.006	Sem/Sem_run-02/stereo_1SH12A0.wav	1.0	1	0.756
132.505	3.8489999999999998	S_U	2.0	n/a	n/a	1.0	1.205	Sem/Sem_run-02/stereo_2SU86A0.wav	1.0	0	0.9550000000000001
136.358	3.46	S_L	1.0	n/a	n/a	1.0	1.358	Sem/Sem_run-02/stereo_1SL28A0.wav	1.0	1	1.108
139.827	4.53	S_C	1.0	n/a	n/a	1.0	0.8759999999999999	Sem/Sem_run-02/ContS32.wav	1.0	1	1.626
144.364	4.351	S_H	1.0	n/a	n/a	1.0	1.421	Sem/Sem_run-02/stereo_2SH52A0.wav	1.0	1	1.171
148.718	3.48	S_H	1.0	n/a	n/a	1.0	1.541	Sem/Sem_run-02/stereo_2SH47A0.wav	1.0	1	1.291
152.204	3.3	S_H	1.0	n/a	n/a	1.0	1.565	Sem/Sem_run-02/stereo_2SH53A0.wav	1.0	1	1.315
155.507	3.847	S_U	2.0	n/a	n/a	1.0	1.919	Sem/Sem_run-02/stereo_1SU39A0.wav	1.0	0	1.669
159.36	3.923	S_C	1.0	n/a	n/a	1.0	1.015	Sem/Sem_run-02/ContS10.wav	1.0	1	1.765
163.296	3.7510000000000003	S_U	2.0	n/a	n/a	2.0	2.092	Sem/Sem_run-02/stereo_2SU80A0.wav	2.0	1	1.842
167.049	4.2	S_L	1.0	n/a	n/a	1.0	1.2790000000000001	Sem/Sem_run-02/stereo_2SL66A0.wav	1.0	1	1.029
171.252	3.99	S_C	1.0	n/a	n/a	n/a	n/a	Sem/Sem_run-02/ContS20.wav	n/a	0	n/a
175.25599999999997	4.041	S_C	1.0	n/a	n/a	1.0	0.789	Sem/Sem_run-02/ContS28.wav	1.0	1	1.5390000000000001
179.30900000000003	4.2	S_U	2.0	n/a	n/a	2.0	1.296	Sem/Sem_run-02/stereo_2SU89A0.wav	2.0	1	1.046
183.512	4.368	S_H	1.0	n/a	n/a	1.0	1.446	Sem/Sem_run-02/stereo_2SH46A0.wav	1.0	1	1.196
