onset	duration	trial_type	correct	window1_response	window1_RT	window2_response	window2_RT	stim_file	calculated_response	calculated_accuracy	calculated_RT
1.084	6.343	SP_S	1.0	n/a	n/a	1.0	3.377	Plaus/Plaus_run-02/stereo_PC37.wav	1.0	1	1.2159999999999993
7.439	6.345	SP_W	1.0	n/a	n/a	1.0	3.5189999999999997	Plaus/Plaus_run-02/stereo_PW74.wav	1.0	1	1.5500000000000005
13.793	6.095	SP_C	1.0	n/a	n/a	1.0	0.163	Plaus/Plaus_run-02/CoM10d.wav	1.0	1	0.9129999999999999
19.898	6.401	SP_I	2.0	n/a	n/a	2.0	2.517	Plaus/Plaus_run-02/stereo_PI56.wav	2.0	1	1.6499999999999997
26.303	6.407	SP_W	1.0	n/a	n/a	1.0	3.537	Plaus/Plaus_run-02/stereo_PW39.wav	1.0	1	1.5099999999999998
32.725	6.8420000000000005	SP_I	2.0	n/a	n/a	2.0	3.605	Plaus/Plaus_run-02/stereo_PI44.wav	2.0	1	1.4080000000000001
39.58	7.7	SP_C	1.0	1.0	0.748	n/a	n/a	Plaus/Plaus_run-02/CoM07e.wav	1.0	1	0.748
47.286	5.756	SP_S	1.0	n/a	n/a	1.0	2.095	Plaus/Plaus_run-02/stereo_PC03.wav	1.0	1	1.1530000000000005
53.056999999999995	7.372000000000001	SP_S	1.0	n/a	n/a	1.0	3.069	Plaus/Plaus_run-02/stereo_PC82.wav	1.0	1	1.0139999999999998
60.428999999999995	6.095	SP_C	1.0	1.0	0.726	n/a	n/a	Plaus/Plaus_run-02/CoM04d.wav	1.0	1	0.726
66.533	6.303	SP_I	2.0	n/a	n/a	2.0	2.6519999999999997	Plaus/Plaus_run-02/stereo_PI23.wav	2.0	1	1.6680000000000001
72.83800000000002	5.655	SP_I	2.0	n/a	n/a	2.0	2.194	Plaus/Plaus_run-02/stereo_PI22.wav	2.0	1	1.275
78.493	6.85	SP_C	1.0	n/a	n/a	1.0	0.096	Plaus/Plaus_run-02/CoM08d.wav	1.0	1	0.846
85.348	6.9179999999999975	SP_S	1.0	n/a	n/a	1.0	4.231	Plaus/Plaus_run-02/stereo_PC79.wav	1.0	1	1.9850000000000003
92.27	5.233	SP_I	2.0	n/a	n/a	2.0	2.639	Plaus/Plaus_run-02/stereo_PI21.wav	2.0	1	1.599
97.507	6.385	SP_S	1.0	n/a	n/a	1.0	2.241	Plaus/Plaus_run-02/stereo_PC46.wav	1.0	1	1.279
103.895	6.282	SP_W	1.0	n/a	n/a	2.0	3.1919999999999997	Plaus/Plaus_run-02/stereo_PW64.wav	2.0	0	2.0860000000000003
110.18299999999999	7.69	SP_C	1.0	n/a	n/a	1.0	0.006	Plaus/Plaus_run-02/CoM04e.wav	1.0	1	0.7559999999999999
117.87299999999999	6.316	SP_I	2.0	n/a	n/a	2.0	3.2769999999999997	Plaus/Plaus_run-02/stereo_PI34.wav	2.0	1	1.12
124.194	5.47	SP_C	1.0	1.0	0.74	n/a	n/a	Plaus/Plaus_run-02/CoM10b.wav	1.0	1	0.74
129.665	5.636	SP_I	2.0	n/a	n/a	2.0	2.9419999999999997	Plaus/Plaus_run-02/stereo_PI55.wav	2.0	1	2.103
135.303	7.461	SP_W	1.0	n/a	n/a	1.0	3.554	Plaus/Plaus_run-02/stereo_PW83.wav	1.0	1	1.5500000000000005
142.775	5.48	SP_C	1.0	1.0	0.733	n/a	n/a	Plaus/Plaus_run-02/CoM01b.wav	1.0	1	0.733
148.262	6.2120000000000015	SP_W	1.0	n/a	n/a	1.0	2.49	Plaus/Plaus_run-02/stereo_PW08.wav	1.0	1	1.6290000000000002
154.484	4.694	SP_W	1.0	n/a	n/a	1.0	2.924	Plaus/Plaus_run-02/stereo_PW07.wav	1.0	1	2.049
159.187	6.197	SP_I	2.0	n/a	n/a	2.0	3.4010000000000002	Plaus/Plaus_run-02/stereo_PI43.wav	2.0	1	1.3410000000000002
165.392	6.1979999999999995	SP_S	1.0	n/a	n/a	1.0	1.964	Plaus/Plaus_run-02/stereo_PC59.wav	1.0	1	0.963
171.597	7.345	SP_C	1.0	1.0	0.721	n/a	n/a	Plaus/Plaus_run-02/CoM05l.wav	1.0	1	0.721
178.952	5.2429999999999986	SP_S	1.0	n/a	n/a	1.0	2.227	Plaus/Plaus_run-02/stereo_PC02.wav	1.0	1	1.348
184.206	6.82	SP_C	1.0	n/a	n/a	1.0	0.28300000000000003	Plaus/Plaus_run-02/CoM09l.wav	1.0	1	1.033
191.028	7.183	SP_I	2.0	n/a	n/a	2.0	3.4010000000000002	Plaus/Plaus_run-02/stereo_PI78.wav	2.0	1	1.4829999999999997
198.217	6.727	SP_W	1.0	n/a	n/a	1.0	3.6239999999999997	Plaus/Plaus_run-02/stereo_PW40.wav	1.0	1	1.391
204.956	5.181	SP_S	1.0	n/a	n/a	1.0	2.18	Plaus/Plaus_run-02/stereo_PC60.wav	1.0	1	0.8900000000000001
210.143	7.135	SP_W	1.0	n/a	n/a	1.0	3.148	Plaus/Plaus_run-02/stereo_PW73.wav	1.0	1	1.2159999999999995
217.282	6.76	SP_C	1.0	1.0	0.7170000000000001	n/a	n/a	Plaus/Plaus_run-02/CoM04l.wav	1.0	1	0.7170000000000001
224.053	6.682	SP_I	2.0	n/a	n/a	2.0	3.609	Plaus/Plaus_run-02/stereo_PI75.wav	2.0	1	1.6130000000000002
230.74200000000002	6.002999999999999	SP_W	1.0	n/a	n/a	2.0	2.778	Plaus/Plaus_run-02/stereo_PW63.wav	2.0	0	1.631
236.74599999999998	5.0760000000000005	SP_W	1.0	n/a	n/a	2.0	2.331	Plaus/Plaus_run-02/stereo_PW05.wav	2.0	0	1.5530000000000002
241.834	6.218	SP_S	1.0	n/a	n/a	1.0	3.763	Plaus/Plaus_run-02/stereo_PC69.wav	1.0	1	1.5260000000000002
248.055	6.569	SP_S	1.0	n/a	n/a	1.0	4.103	Plaus/Plaus_run-02/stereo_PC70.wav	1.0	1	2.227
