onset	duration	trial_type	correct	window1_response	window1_RT	window2_response	window2_RT	stim_file	calculated_response	calculated_accuracy	calculated_RT
1.133	3.4539999999999997	P_R	1.0	n/a	n/a	1.0	1.662	Phon/Phon_run-01/stereo_PR01.wav	1.0	1	1.412
4.6	3.767	P_O	1.0	n/a	n/a	2.0	1.475	Phon/Phon_run-01/PC018.wav	2.0	0	1.225
8.383	3.391	P_O	1.0	n/a	n/a	2.0	1.402	Phon/Phon_run-01/PC009.wav	2.0	0	1.152
11.783	4.374	P_C	1.0	n/a	n/a	1.0	1.41	Phon/Phon_run-01/ContS11.wav	1.0	1	2.16
16.166	3.345	P_U	2.0	n/a	n/a	2.0	1.4769999999999999	Phon/Phon_run-01/PM002.wav	2.0	1	1.2269999999999999
19.516	4.4510000000000005	P_C	1.0	n/a	n/a	1.0	1.361	Phon/Phon_run-01/ContS21.wav	1.0	1	2.1109999999999998
23.982	4.382	P_O	1.0	n/a	n/a	2.0	1.496	Phon/Phon_run-01/PC005.wav	2.0	0	1.246
28.366	3.3	P_U	2.0	n/a	n/a	2.0	1.252	Phon/Phon_run-01/stereo_PU26.wav	2.0	1	1.002
31.666	4.324	P_C	1.0	n/a	n/a	1.0	1.308	Phon/Phon_run-01/ContS03.wav	1.0	1	2.058
35.999	4.378	P_R	1.0	n/a	n/a	1.0	2.302	Phon/Phon_run-01/stereo_PR29.wav	1.0	1	2.052
40.382	3.4810000000000003	P_U	2.0	n/a	n/a	2.0	1.6480000000000001	Phon/Phon_run-01/PM020.wav	2.0	1	1.3980000000000001
43.865	4.393	P_O	1.0	n/a	n/a	1.0	1.73	Phon/Phon_run-01/PC027.wav	1.0	1	1.48
48.265	4.4	P_R	1.0	n/a	n/a	1.0	1.704	Phon/Phon_run-01/stereo_PR11.wav	1.0	1	1.454
52.665	3.884	P_C	1.0	n/a	n/a	1.0	1.214	Phon/Phon_run-01/ContS05.wav	1.0	1	1.964
56.565	3.891	P_U	2.0	n/a	n/a	2.0	2.347	Phon/Phon_run-01/stereo_PU28.wav	2.0	1	2.097
60.465	4.4	P_O	1.0	n/a	n/a	2.0	2.206	Phon/Phon_run-01/PC013.wav	2.0	0	1.956
64.865	3.513	P_C	1.0	n/a	n/a	1.0	1.439	Phon/Phon_run-01/ContS17.wav	1.0	1	2.189
68.381	4.4	P_U	2.0	n/a	n/a	2.0	2.197	Phon/Phon_run-01/PM027.wav	2.0	1	1.947
72.781	4.4	P_O	1.0	n/a	n/a	1.0	1.665	Phon/Phon_run-01/PC021.wav	1.0	1	1.415
77.181	4.496	P_C	1.0	n/a	n/a	1.0	1.41	Phon/Phon_run-01/ContS29.wav	1.0	1	2.16
81.681	3.3680000000000003	P_R	1.0	n/a	n/a	1.0	1.391	Phon/Phon_run-01/stereo_PR25.wav	1.0	1	1.141
85.064	3.95	P_O	1.0	n/a	n/a	2.0	1.9040000000000001	Phon/Phon_run-01/PC012.wav	2.0	0	1.6540000000000001
89.014	3.95	P_U	2.0	n/a	n/a	2.0	1.5290000000000001	Phon/Phon_run-01/PM003.wav	2.0	1	1.2790000000000001
92.964	3.939	P_O	1.0	n/a	n/a	2.0	1.412	Phon/Phon_run-01/PC004.wav	2.0	0	1.162
96.914	3.59	P_C	1.0	n/a	n/a	1.0	1.527	Phon/Phon_run-01/ContS27.wav	1.0	1	2.277
100.514	4.296	P_U	2.0	n/a	n/a	2.0	1.632	Phon/Phon_run-01/stereo_PU21.wav	2.0	1	1.382
104.81299999999999	3.862	P_R	1.0	n/a	n/a	1.0	1.307	Phon/Phon_run-01/stereo_PR26.wav	1.0	1	1.057
108.68	3.95	P_O	1.0	n/a	n/a	2.0	1.694	Phon/Phon_run-01/PC026.wav	2.0	0	1.444
112.63	3.5	P_O	1.0	n/a	n/a	2.0	1.6869999999999998	Phon/Phon_run-01/PC025.wav	2.0	0	1.4369999999999998
116.13	4.013	P_C	1.0	n/a	n/a	1.0	1.426	Phon/Phon_run-01/ContS23.wav	1.0	1	2.176
120.146	3.792	P_R	1.0	n/a	n/a	1.0	1.206	Phon/Phon_run-01/stereo_PR18.wav	1.0	1	0.956
123.946	3.346	P_U	2.0	n/a	n/a	2.0	1.3230000000000002	Phon/Phon_run-01/stereo_PU19.wav	2.0	1	1.0730000000000002
127.296	3.891	P_R	1.0	n/a	n/a	1.0	1.2	Phon/Phon_run-01/stereo_PR03.wav	1.0	1	0.95
131.196	3.355	P_O	1.0	n/a	n/a	2.0	1.3559999999999999	Phon/Phon_run-01/PC003.wav	2.0	0	1.1059999999999999
134.563	3.951	P_C	1.0	n/a	n/a	1.0	1.3090000000000002	Phon/Phon_run-01/ContS15.wav	1.0	1	2.059
138.529	3.74	P_U	2.0	n/a	n/a	2.0	1.311	Phon/Phon_run-01/stereo_PU16.wav	2.0	1	1.061
142.279	3.95	P_R	1.0	n/a	n/a	1.0	1.319	Phon/Phon_run-01/stereo_PR10.wav	1.0	1	1.069
146.22899999999996	3.464	P_C	1.0	n/a	n/a	1.0	1.253	Phon/Phon_run-01/ContS09.wav	1.0	1	2.003
149.696	4.275	P_R	1.0	n/a	n/a	1.0	1.68	Phon/Phon_run-01/stereo_PR04.wav	1.0	1	1.43
153.97899999999996	3.95	P_U	2.0	n/a	n/a	2.0	2.158	Phon/Phon_run-01/PM023.wav	2.0	1	1.908
157.929	4.4	P_U	2.0	n/a	n/a	2.0	1.44	Phon/Phon_run-01/PM001.wav	2.0	1	1.19
162.345	3.665	P_C	1.0	n/a	n/a	1.0	1.485	Phon/Phon_run-01/ContS35.wav	1.0	1	2.2350000000000003
166.012	3.463	P_O	1.0	n/a	n/a	2.0	1.351	Phon/Phon_run-01/PC017.wav	2.0	0	1.101
169.47799999999995	4.332	P_R	1.0	n/a	n/a	1.0	2.4819999999999998	Phon/Phon_run-01/stereo_PR19.wav	1.0	1	2.2319999999999998
173.81099999999995	4.083	P_C	1.0	n/a	n/a	1.0	1.496	Phon/Phon_run-01/ContS33.wav	1.0	1	2.246
177.895	3.5	P_R	1.0	n/a	n/a	1.0	1.331	Phon/Phon_run-01/stereo_PR17.wav	1.0	1	1.081
181.395	4.2669999999999995	P_U	2.0	n/a	n/a	2.0	1.35	Phon/Phon_run-01/PM009.wav	2.0	1	1.1
185.678	3.4389999999999996	P_R	1.0	n/a	n/a	1.0	1.101	Phon/Phon_run-01/stereo_PR09.wav	1.0	1	0.851
