onset	duration	trial_type	correct	window1_response	window1_RT	window2_response	window2_RT	stim_file	calculated_response	calculated_accuracy	calculated_RT
1.0907	4.2010000000000005	S_U	2.0	n/a	n/a	2.0	2.175	Sem/Sem_run-02/stereo_1SU33A0.wav	2.0	1	1.9249999999999998
5.2947	3.486	S_U	2.0	n/a	n/a	2.0	2.011	Sem/Sem_run-02/stereo_2SU85A0.wav	2.0	1	1.7610000000000001
8.7817	3.8539999999999996	S_H	1.0	n/a	n/a	n/a	n/a	Sem/Sem_run-02/stereo_2SH50A0.wav	n/a	0	n/a
12.6503	3.454	S_C	1.0	1.0	0.728	n/a	n/a	Sem/Sem_run-02/ContS08.wav	1.0	1	0.728
16.1195	4.33	S_H	1.0	n/a	n/a	1.0	1.535	Sem/Sem_run-02/stereo_1SH10A0.wav	1.0	1	1.285
20.4559	3.872	S_L	1.0	n/a	n/a	1.0	2.717	Sem/Sem_run-02/stereo_2SL61A0.wav	1.0	1	2.467
24.3421	3.885	S_L	1.0	n/a	n/a	1.0	1.3940000000000001	Sem/Sem_run-02/stereo_1SL23A0.wav	1.0	1	1.144
28.2293	4.2	S_U	2.0	n/a	n/a	2.0	1.838	Sem/Sem_run-02/stereo_1SU42A0.wav	2.0	1	1.588
32.4326	3.321	S_L	1.0	n/a	n/a	1.0	2.144	Sem/Sem_run-02/stereo_1SL16A0.wav	1.0	1	1.8940000000000001
35.7684	3.59	S_C	1.0	n/a	n/a	1.0	0.252	Sem/Sem_run-02/ContS26.wav	1.0	1	1.002
39.3711	4.4	S_H	1.0	n/a	n/a	1.0	2.496	Sem/Sem_run-02/stereo_2SH60A0.wav	1.0	1	2.246
43.7745	4.311	S_L	1.0	n/a	n/a	1.0	2.2	Sem/Sem_run-02/stereo_2SL75A0.wav	1.0	1	1.9500000000000002
48.0943	3.912	S_H	1.0	n/a	n/a	1.0	1.499	Sem/Sem_run-02/stereo_2SH59A0.wav	1.0	1	1.249
52.0138	4.4	S_U	2.0	n/a	n/a	2.0	1.794	Sem/Sem_run-02/stereo_2SU84A0.wav	2.0	1	1.544
56.4171	3.4210000000000003	S_U	2.0	n/a	n/a	2.0	2.235	Sem/Sem_run-02/stereo_1SU43A0.wav	2.0	1	1.9849999999999999
59.8529	3.8539999999999996	S_C	1.0	n/a	n/a	1.0	0.207	Sem/Sem_run-02/ContS02.wav	1.0	1	0.957
63.7217	4.37	S_L	1.0	n/a	n/a	1.0	2.576	Sem/Sem_run-02/stereo_1SL19A0.wav	1.0	1	2.326
68.0927	3.862	S_L	1.0	n/a	n/a	1.0	2.673	Sem/Sem_run-02/stereo_1SL18A0.wav	1.0	1	2.423
71.9622	4.462	S_C	1.0	n/a	n/a	2.0	1.565	Sem/Sem_run-02/ContS22.wav	2.0	0	2.315
76.4321	3.406	S_L	1.0	n/a	n/a	1.0	2.002	Sem/Sem_run-02/stereo_1SL21A0.wav	1.0	1	1.7519999999999998
79.8515	3.355	S_U	2.0	n/a	n/a	1.0	2.204	Sem/Sem_run-02/stereo_1SU36A0.wav	1.0	0	1.9540000000000002
83.2206	4.324	S_C	1.0	2.0	0.616	n/a	n/a	Sem/Sem_run-02/ContS04.wav	2.0	0	0.616
87.5571	4.253	S_L	1.0	n/a	n/a	1.0	2.5	Sem/Sem_run-02/stereo_1SL24A0.wav	1.0	1	2.25
91.8112	3.839	S_L	1.0	n/a	n/a	1.0	1.607	Sem/Sem_run-02/stereo_2SL70A0.wav	1.0	1	1.357
95.664	4.395	S_C	1.0	n/a	n/a	1.0	0.825	Sem/Sem_run-02/ContS14.wav	1.0	1	1.575
100.0673	3.8739999999999997	S_H	1.0	n/a	n/a	1.0	1.568	Sem/Sem_run-02/stereo_1SH09A0.wav	1.0	1	1.318
103.9534	3.75	S_U	2.0	n/a	n/a	2.0	1.354	Sem/Sem_run-02/stereo_1SU32A0.wav	2.0	1	1.104
107.7063	3.641	S_C	1.0	n/a	n/a	1.0	1.83	Sem/Sem_run-02/ContS34.wav	1.0	1	2.58
111.359	3.338	S_U	2.0	n/a	n/a	n/a	n/a	Sem/Sem_run-02/stereo_1SU31A0.wav	n/a	0	n/a
114.7114	3.45	S_L	1.0	n/a	n/a	n/a	n/a	Sem/Sem_run-02/stereo_2SL68A0.wav	n/a	0	n/a
118.164	3.8510000000000004	S_H	1.0	n/a	n/a	1.0	1.544	Sem/Sem_run-02/stereo_1SH14A0.wav	1.0	1	1.294
122.0178	3.459	S_H	1.0	n/a	n/a	1.0	1.798	Sem/Sem_run-02/stereo_1SH01A0.wav	1.0	1	1.548
125.4869	3.512	S_C	1.0	n/a	n/a	1.0	0.805	Sem/Sem_run-02/ContS16.wav	1.0	1	1.5550000000000002
129.0062	3.489	S_H	1.0	n/a	n/a	1.0	1.4040000000000001	Sem/Sem_run-02/stereo_1SH12A0.wav	1.0	1	1.154
132.5087	3.8489999999999998	S_U	2.0	n/a	n/a	2.0	1.66	Sem/Sem_run-02/stereo_2SU86A0.wav	2.0	1	1.41
136.3616	3.46	S_L	1.0	n/a	n/a	1.0	1.742	Sem/Sem_run-02/stereo_1SL28A0.wav	1.0	1	1.492
139.8308	4.53	S_C	1.0	n/a	n/a	2.0	1.038	Sem/Sem_run-02/ContS32.wav	2.0	0	1.788
144.3674	4.351	S_H	1.0	n/a	n/a	1.0	1.6019999999999999	Sem/Sem_run-02/stereo_2SH52A0.wav	1.0	1	1.352
148.7216	3.48	S_H	1.0	n/a	n/a	n/a	n/a	Sem/Sem_run-02/stereo_2SH47A0.wav	n/a	0	n/a
152.2075	3.3	S_H	1.0	n/a	n/a	1.0	1.7109999999999999	Sem/Sem_run-02/stereo_2SH53A0.wav	1.0	1	1.461
155.5099	3.847	S_U	2.0	n/a	n/a	2.0	1.4	Sem/Sem_run-02/stereo_1SU39A0.wav	2.0	1	1.15
159.3627	3.923	S_C	1.0	n/a	n/a	1.0	0.426	Sem/Sem_run-02/ContS10.wav	1.0	1	1.176
163.2989	3.7510000000000003	S_U	2.0	n/a	n/a	2.0	1.794	Sem/Sem_run-02/stereo_2SU80A0.wav	2.0	1	1.544
167.0527	4.2	S_L	1.0	n/a	n/a	1.0	2.6460000000000004	Sem/Sem_run-02/stereo_2SL66A0.wav	1.0	1	2.3960000000000004
171.2559	3.99	S_C	1.0	n/a	n/a	2.0	0.626	Sem/Sem_run-02/ContS20.wav	2.0	0	1.376
175.2588	4.041	S_C	1.0	n/a	n/a	1.0	1.043	Sem/Sem_run-02/ContS28.wav	1.0	1	1.793
179.3117	4.2	S_U	2.0	n/a	n/a	2.0	2.377	Sem/Sem_run-02/stereo_2SU89A0.wav	2.0	1	2.127
183.5149	4.368	S_H	1.0	n/a	n/a	1.0	1.415	Sem/Sem_run-02/stereo_2SH46A0.wav	1.0	1	1.165
