onset	duration	trial_type	correct	window1_response	window1_RT	window2_response	window2_RT	stim_file	calculated_response	calculated_accuracy	calculated_RT
1.0924	3.5	P_R	1.0	n/a	n/a	1.0	2.2	Phon/Phon_run-02/stereo_PR20.wav	1.0	1	1.9500000000000002
4.595	4.235	P_O	1.0	n/a	n/a	1.0	2.085	Phon/Phon_run-02/PC034.wav	1.0	1	1.835
8.8325	3.375	P_R	1.0	n/a	n/a	1.0	1.181	Phon/Phon_run-02/stereo_PR13.wav	1.0	1	0.931
12.2183	3.474	P_C	1.0	n/a	n/a	1.0	1.166	Phon/Phon_run-02/ContS12.wav	1.0	1	1.916
15.7041	3.875	P_U	2.0	n/a	n/a	2.0	1.722	Phon/Phon_run-02/PM025.wav	2.0	1	1.472
19.5903	3.726	P_R	1.0	n/a	n/a	2.0	2.3480000000000003	Phon/Phon_run-02/stereo_PR22.wav	2.0	0	2.0980000000000003
23.3263	3.451	P_O	1.0	n/a	n/a	n/a	n/a	Phon/Phon_run-02/PC014.wav	n/a	0	n/a
26.7799	3.779	P_C	1.0	n/a	n/a	2.0	1.189	Phon/Phon_run-02/ContS02.wav	2.0	0	1.939
30.566	3.821	P_U	2.0	1.0	0.053	1.0	0.065	Phon/Phon_run-02/stereo_PU18.wav	n/a	0	n/a
34.402	3.49	P_U	2.0	n/a	n/a	1.0	1.9709999999999999	Phon/Phon_run-02/stereo_PU12.wav	1.0	0	1.721
37.9046	4.38	P_C	1.0	n/a	n/a	1.0	2.093	Phon/Phon_run-02/ContS32.wav	1.0	1	2.843
42.291000000000004	4.0969999999999995	P_R	1.0	n/a	n/a	n/a	n/a	Phon/Phon_run-02/stereo_PR16.wav	n/a	0	n/a
46.394	3.5	P_O	1.0	n/a	n/a	n/a	n/a	Phon/Phon_run-02/PC022.wav	n/a	0	n/a
49.8966	4.0760000000000005	P_R	1.0	n/a	n/a	1.0	0.9329999999999999	Phon/Phon_run-02/stereo_PR08.wav	1.0	1	0.683
53.983000000000004	3.5	P_O	1.0	n/a	n/a	1.0	1.6230000000000002	Phon/Phon_run-02/PC028.wav	1.0	1	1.3730000000000002
57.4856	3.5	P_U	2.0	n/a	n/a	n/a	n/a	Phon/Phon_run-02/stereo_PU27.wav	n/a	0	n/a
60.9881	3.819	P_C	1.0	n/a	n/a	1.0	1.048	Phon/Phon_run-02/ContS06.wav	1.0	1	1.798
64.8086	4.25	P_O	1.0	n/a	n/a	1.0	2.801	Phon/Phon_run-02/PC031.wav	1.0	1	2.551
69.062	3.662	P_C	1.0	n/a	n/a	1.0	2.235	Phon/Phon_run-02/ContS36.wav	1.0	1	2.985
72.7312	3.823	P_O	1.0	n/a	n/a	1.0	1.9	Phon/Phon_run-02/PC023.wav	1.0	1	1.65
76.5674	4.323	P_C	1.0	n/a	n/a	n/a	n/a	Phon/Phon_run-02/ContS24.wav	n/a	0	n/a
80.9038	3.865	P_U	2.0	n/a	n/a	2.0	1.6280000000000001	Phon/Phon_run-02/PM004.wav	2.0	1	1.378
84.7733	3.875	P_O	1.0	n/a	n/a	1.0	2.1790000000000003	Phon/Phon_run-02/PC007.wav	1.0	1	1.9290000000000003
88.6594	4.25	P_U	2.0	n/a	n/a	2.0	2.25	Phon/Phon_run-02/PM011.wav	2.0	1	2.0
92.9126	4.362	P_C	1.0	n/a	n/a	n/a	n/a	Phon/Phon_run-02/ContS30.wav	n/a	0	n/a
97.2825	3.875	P_O	1.0	n/a	n/a	n/a	n/a	Phon/Phon_run-02/PC030.wav	n/a	0	n/a
101.1687	3.3360000000000003	P_R	1.0	n/a	n/a	1.0	1.5	Phon/Phon_run-02/stereo_PR05.wav	1.0	1	1.25
104.5077	4.113	P_U	2.0	n/a	n/a	n/a	n/a	Phon/Phon_run-02/stereo_PU01.wav	n/a	0	n/a
108.6273	4.1739999999999995	P_U	2.0	n/a	n/a	2.0	2.984	Phon/Phon_run-02/PM029.wav	2.0	1	2.734
112.8137	3.4539999999999997	P_C	1.0	n/a	n/a	n/a	n/a	Phon/Phon_run-02/ContS08.wav	n/a	0	n/a
116.2828	3.446	P_R	1.0	n/a	n/a	1.0	1.744	Phon/Phon_run-02/stereo_PR30.wav	1.0	1	1.494
119.7352	3.85	P_R	1.0	n/a	n/a	1.0	2.1590000000000003	Phon/Phon_run-02/stereo_PR07.wav	1.0	1	1.9090000000000003
123.588	3.438	P_U	2.0	n/a	n/a	n/a	n/a	Phon/Phon_run-02/stereo_PU02.wav	n/a	0	n/a
127.0406	3.915	P_C	1.0	2.0	0.13699999999999998	1.0	1.479	Phon/Phon_run-02/ContS20.wav	2.0	0	0.13699999999999998
130.9601	3.487	P_U	2.0	n/a	n/a	2.0	2.121	Phon/Phon_run-02/PM021.wav	2.0	1	1.871
134.46200000000002	3.965	P_C	1.0	n/a	n/a	n/a	n/a	Phon/Phon_run-02/ContS26.wav	n/a	0	n/a
138.4315	3.792	P_R	1.0	n/a	n/a	1.0	1.589	Phon/Phon_run-02/stereo_PR31.wav	1.0	1	1.339
142.2343	4.135	P_O	1.0	n/a	n/a	n/a	n/a	Phon/Phon_run-02/PC024.wav	n/a	0	n/a
146.3717	3.875	P_U	2.0	n/a	n/a	n/a	n/a	Phon/Phon_run-02/PM010.wav	n/a	0	n/a
150.2579	3.875	P_O	1.0	n/a	n/a	2.0	2.103	Phon/Phon_run-02/PC015.wav	2.0	0	1.8530000000000002
154.144	4.245	P_C	1.0	n/a	n/a	n/a	n/a	Phon/Phon_run-02/ContS14.wav	n/a	0	n/a
158.3971	3.854	P_R	1.0	n/a	n/a	1.0	1.719	Phon/Phon_run-02/stereo_PR14.wav	1.0	1	1.469
162.2662	4.239	P_O	1.0	n/a	n/a	1.0	1.4180000000000001	Phon/Phon_run-02/PC008.wav	1.0	1	1.168
166.5192	4.25	P_U	2.0	n/a	n/a	2.0	2.158	Phon/Phon_run-02/stereo_PU11.wav	2.0	1	1.908
170.7726	3.523	P_C	1.0	n/a	n/a	n/a	n/a	Phon/Phon_run-02/ContS18.wav	n/a	0	n/a
174.3085	3.429	P_O	1.0	n/a	n/a	1.0	2.189	Phon/Phon_run-02/PC006.wav	1.0	1	1.939
177.7443	4.18	P_R	1.0	n/a	n/a	n/a	n/a	Phon/Phon_run-02/stereo_PR32.wav	n/a	0	n/a
181.9307	4.104	P_R	1.0	n/a	n/a	n/a	n/a	Phon/Phon_run-02/stereo_PR24.wav	n/a	0	n/a
