onset	duration	trial_type	correct	window1_response	window1_RT	window2_response	window2_RT	stim_file	calculated_response	calculated_accuracy	calculated_RT
1.084	3.5	P_R	1.0	n/a	n/a	1.0	2.3409999999999997	Phon/Phon_run-02/stereo_PR20.wav	1.0	1	2.091
4.586	4.235	P_O	1.0	n/a	n/a	2.0	1.4340000000000002	Phon/Phon_run-02/PC034.wav	2.0	0	1.1840000000000002
8.823	3.375	P_R	1.0	n/a	n/a	1.0	1.117	Phon/Phon_run-02/stereo_PR13.wav	1.0	1	0.867
12.209000000000001	3.474	P_C	1.0	n/a	n/a	1.0	0.255	Phon/Phon_run-02/ContS12.wav	1.0	1	1.005
15.695	3.875	P_U	2.0	n/a	n/a	2.0	1.538	Phon/Phon_run-02/PM025.wav	2.0	1	1.288
19.581	3.726	P_R	1.0	n/a	n/a	1.0	1.4140000000000001	Phon/Phon_run-02/stereo_PR22.wav	1.0	1	1.164
23.318	3.451	P_O	1.0	n/a	n/a	2.0	2.029	Phon/Phon_run-02/PC014.wav	2.0	0	1.779
26.77	3.779	P_C	1.0	n/a	n/a	1.0	0.47	Phon/Phon_run-02/ContS02.wav	1.0	1	1.22
30.557	3.821	P_U	2.0	n/a	n/a	2.0	1.213	Phon/Phon_run-02/stereo_PU18.wav	2.0	1	0.9630000000000001
34.393	3.49	P_U	2.0	n/a	n/a	2.0	1.7919999999999998	Phon/Phon_run-02/stereo_PU12.wav	2.0	1	1.5419999999999998
37.896	4.38	P_C	1.0	n/a	n/a	1.0	0.885	Phon/Phon_run-02/ContS32.wav	1.0	1	1.635
42.282	4.0969999999999995	P_R	1.0	n/a	n/a	1.0	1.205	Phon/Phon_run-02/stereo_PR16.wav	1.0	1	0.9550000000000001
46.385	3.5	P_O	1.0	n/a	n/a	1.0	1.67	Phon/Phon_run-02/PC022.wav	1.0	1	1.42
49.88800000000001	4.0760000000000005	P_R	1.0	n/a	n/a	1.0	1.225	Phon/Phon_run-02/stereo_PR08.wav	1.0	1	0.9750000000000001
53.975	3.5	P_O	1.0	n/a	n/a	1.0	1.756	Phon/Phon_run-02/PC028.wav	1.0	1	1.506
57.477	3.5	P_U	2.0	n/a	n/a	2.0	1.7209999999999999	Phon/Phon_run-02/stereo_PU27.wav	2.0	1	1.471
60.98	3.819	P_C	1.0	n/a	n/a	1.0	0.418	Phon/Phon_run-02/ContS06.wav	1.0	1	1.168
64.8	4.25	P_O	1.0	n/a	n/a	1.0	1.382	Phon/Phon_run-02/PC031.wav	1.0	1	1.132
69.053	3.662	P_C	1.0	n/a	n/a	1.0	0.529	Phon/Phon_run-02/ContS36.wav	1.0	1	1.279
72.722	3.823	P_O	1.0	n/a	n/a	2.0	1.96	Phon/Phon_run-02/PC023.wav	2.0	0	1.71
76.559	4.323	P_C	1.0	n/a	n/a	1.0	0.34	Phon/Phon_run-02/ContS24.wav	1.0	1	1.09
80.895	3.865	P_U	2.0	n/a	n/a	2.0	1.443	Phon/Phon_run-02/PM004.wav	2.0	1	1.193
84.765	3.875	P_O	1.0	n/a	n/a	1.0	1.324	Phon/Phon_run-02/PC007.wav	1.0	1	1.074
88.65100000000002	4.25	P_U	2.0	n/a	n/a	2.0	1.6769999999999998	Phon/Phon_run-02/PM011.wav	2.0	1	1.4269999999999998
92.905	4.362	P_C	1.0	n/a	n/a	1.0	0.239	Phon/Phon_run-02/ContS30.wav	1.0	1	0.989
97.275	3.875	P_O	1.0	n/a	n/a	n/a	n/a	Phon/Phon_run-02/PC030.wav	n/a	0	n/a
101.161	3.3360000000000003	P_R	1.0	n/a	n/a	1.0	1.305	Phon/Phon_run-02/stereo_PR05.wav	1.0	1	1.055
104.49700000000001	4.113	P_U	2.0	n/a	n/a	2.0	1.756	Phon/Phon_run-02/stereo_PU01.wav	2.0	1	1.506
108.617	4.1739999999999995	P_U	2.0	n/a	n/a	2.0	1.218	Phon/Phon_run-02/PM029.wav	2.0	1	0.968
112.803	3.4539999999999997	P_C	1.0	n/a	n/a	n/a	n/a	Phon/Phon_run-02/ContS08.wav	n/a	0	n/a
116.273	3.446	P_R	1.0	n/a	n/a	1.0	1.73	Phon/Phon_run-02/stereo_PR30.wav	1.0	1	1.48
119.726	3.85	P_R	1.0	n/a	n/a	1.0	2.019	Phon/Phon_run-02/stereo_PR07.wav	1.0	1	1.7690000000000001
123.57799999999999	3.438	P_U	2.0	n/a	n/a	2.0	2.011	Phon/Phon_run-02/stereo_PU02.wav	2.0	1	1.7610000000000001
127.031	3.915	P_C	1.0	n/a	n/a	1.0	0.24600000000000002	Phon/Phon_run-02/ContS20.wav	1.0	1	0.996
130.951	3.487	P_U	2.0	n/a	n/a	1.0	1.147	Phon/Phon_run-02/PM021.wav	1.0	0	0.897
134.454	3.965	P_C	1.0	2.0	0.46399999999999997	1.0	0.77	Phon/Phon_run-02/ContS26.wav	2.0	0	0.464
138.423	3.792	P_R	1.0	n/a	n/a	1.0	1.672	Phon/Phon_run-02/stereo_PR31.wav	1.0	1	1.422
142.226	4.135	P_O	1.0	n/a	n/a	2.0	1.601	Phon/Phon_run-02/PC024.wav	2.0	0	1.351
146.363	3.875	P_U	2.0	n/a	n/a	2.0	2.0	Phon/Phon_run-02/PM010.wav	2.0	1	1.75
150.249	3.875	P_O	1.0	n/a	n/a	2.0	1.421	Phon/Phon_run-02/PC015.wav	2.0	0	1.171
154.135	4.245	P_C	1.0	n/a	n/a	1.0	1.138	Phon/Phon_run-02/ContS14.wav	1.0	1	1.888
158.389	3.854	P_R	1.0	n/a	n/a	1.0	1.703	Phon/Phon_run-02/stereo_PR14.wav	1.0	1	1.453
162.25799999999995	4.239	P_O	1.0	n/a	n/a	1.0	1.472	Phon/Phon_run-02/PC008.wav	1.0	1	1.222
166.512	4.25	P_U	2.0	n/a	n/a	2.0	2.6210000000000004	Phon/Phon_run-02/stereo_PU11.wav	2.0	1	2.3710000000000004
170.765	3.523	P_C	1.0	n/a	n/a	1.0	0.512	Phon/Phon_run-02/ContS18.wav	1.0	1	1.262
174.301	3.429	P_O	1.0	n/a	n/a	1.0	1.48	Phon/Phon_run-02/PC006.wav	1.0	1	1.23
177.737	4.18	P_R	1.0	n/a	n/a	1.0	1.743	Phon/Phon_run-02/stereo_PR32.wav	1.0	1	1.493
181.924	4.104	P_R	1.0	n/a	n/a	2.0	1.97	Phon/Phon_run-02/stereo_PR24.wav	2.0	0	1.72
