onset	duration	trial_type	correct	window1_response	window1_RT	window2_response	window2_RT	stim_file	calculated_response	calculated_accuracy	calculated_RT
1.0924	3.5	P_R	1.0	n/a	n/a	n/a	n/a	Phon/Phon_run-02/stereo_PR20.wav	n/a	0	n/a
4.595	4.235	P_O	1.0	n/a	n/a	1.0	1.58	Phon/Phon_run-02/PC034.wav	1.0	1	1.33
8.8325	3.375	P_R	1.0	n/a	n/a	1.0	1.6219999999999999	Phon/Phon_run-02/stereo_PR13.wav	1.0	1	1.372
12.2183	3.474	P_C	1.0	n/a	n/a	1.0	0.561	Phon/Phon_run-02/ContS12.wav	1.0	1	1.311
15.7041	3.875	P_U	2.0	n/a	n/a	2.0	1.8459999999999999	Phon/Phon_run-02/PM025.wav	2.0	1	1.596
19.5903	3.726	P_R	1.0	n/a	n/a	1.0	2.051	Phon/Phon_run-02/stereo_PR22.wav	1.0	1	1.8010000000000002
23.3263	3.451	P_O	1.0	n/a	n/a	n/a	n/a	Phon/Phon_run-02/PC014.wav	n/a	0	n/a
26.7799	3.779	P_C	1.0	n/a	n/a	1.0	0.657	Phon/Phon_run-02/ContS02.wav	1.0	1	1.407
30.566	3.821	P_U	2.0	n/a	n/a	1.0	0.998	Phon/Phon_run-02/stereo_PU18.wav	1.0	0	0.748
34.402	3.49	P_U	2.0	n/a	n/a	1.0	1.8980000000000001	Phon/Phon_run-02/stereo_PU12.wav	1.0	0	1.648
37.9046	4.38	P_C	1.0	n/a	n/a	1.0	0.377	Phon/Phon_run-02/ContS32.wav	1.0	1	1.127
42.291000000000004	4.0969999999999995	P_R	1.0	n/a	n/a	1.0	1.889	Phon/Phon_run-02/stereo_PR16.wav	1.0	1	1.639
46.394	3.5	P_O	1.0	n/a	n/a	1.0	1.2790000000000001	Phon/Phon_run-02/PC022.wav	1.0	1	1.029
49.8966	4.0760000000000005	P_R	1.0	n/a	n/a	2.0	1.82	Phon/Phon_run-02/stereo_PR08.wav	2.0	0	1.57
53.983000000000004	3.5	P_O	1.0	n/a	n/a	n/a	n/a	Phon/Phon_run-02/PC028.wav	2.0	0	3.176
57.4856	3.5	P_U	2.0	2.0	0.6759999999999999	n/a	n/a	Phon/Phon_run-02/stereo_PU27.wav	n/a	0	n/a
60.9881	3.819	P_C	1.0	n/a	n/a	1.0	0.924	Phon/Phon_run-02/ContS06.wav	1.0	1	1.674
64.8086	4.25	P_O	1.0	n/a	n/a	2.0	2.7	Phon/Phon_run-02/PC031.wav	2.0	0	2.45
69.062	3.662	P_C	1.0	n/a	n/a	1.0	2.019	Phon/Phon_run-02/ContS36.wav	1.0	1	2.769
72.7312	3.823	P_O	1.0	n/a	n/a	2.0	2.539	Phon/Phon_run-02/PC023.wav	2.0	0	2.289
76.5674	4.323	P_C	1.0	n/a	n/a	1.0	0.22	Phon/Phon_run-02/ContS24.wav	1.0	1	0.97
80.9038	3.865	P_U	2.0	n/a	n/a	2.0	1.062	Phon/Phon_run-02/PM004.wav	2.0	1	0.812
84.7733	3.875	P_O	1.0	n/a	n/a	2.0	1.5319999999999998	Phon/Phon_run-02/PC007.wav	2.0	0	1.2819999999999998
88.6594	4.25	P_U	2.0	n/a	n/a	2.0	1.8359999999999999	Phon/Phon_run-02/PM011.wav	2.0	1	1.586
92.9126	4.362	P_C	1.0	n/a	n/a	n/a	n/a	Phon/Phon_run-02/ContS30.wav	n/a	0	n/a
97.2825	3.875	P_O	1.0	n/a	n/a	2.0	1.9180000000000001	Phon/Phon_run-02/PC030.wav	2.0	0	1.668
101.1687	3.3360000000000003	P_R	1.0	n/a	n/a	2.0	0.7709999999999999	Phon/Phon_run-02/stereo_PR05.wav	2.0	0	0.5209999999999999
104.5077	4.113	P_U	2.0	n/a	n/a	2.0	2.174	Phon/Phon_run-02/stereo_PU01.wav	2.0	1	1.924
108.6273	4.1739999999999995	P_U	2.0	n/a	n/a	n/a	n/a	Phon/Phon_run-02/PM029.wav	n/a	0	n/a
112.8137	3.4539999999999997	P_C	1.0	n/a	n/a	1.0	0.9990000000000001	Phon/Phon_run-02/ContS08.wav	1.0	1	1.749
116.2828	3.446	P_R	1.0	n/a	n/a	n/a	n/a	Phon/Phon_run-02/stereo_PR30.wav	n/a	0	n/a
119.7352	3.85	P_R	1.0	n/a	n/a	n/a	n/a	Phon/Phon_run-02/stereo_PR07.wav	n/a	0	n/a
123.588	3.438	P_U	2.0	n/a	n/a	n/a	n/a	Phon/Phon_run-02/stereo_PU02.wav	n/a	0	n/a
127.0406	3.915	P_C	1.0	n/a	n/a	n/a	n/a	Phon/Phon_run-02/ContS20.wav	n/a	0	n/a
130.9601	3.487	P_U	2.0	n/a	n/a	n/a	n/a	Phon/Phon_run-02/PM021.wav	n/a	0	n/a
134.46200000000002	3.965	P_C	1.0	n/a	n/a	1.0	1.609	Phon/Phon_run-02/ContS26.wav	1.0	1	2.359
138.4315	3.792	P_R	1.0	n/a	n/a	2.0	2.01	Phon/Phon_run-02/stereo_PR31.wav	2.0	0	1.7599999999999998
142.2343	4.135	P_O	1.0	n/a	n/a	2.0	2.012	Phon/Phon_run-02/PC024.wav	2.0	0	1.762
146.3717	3.875	P_U	2.0	n/a	n/a	n/a	n/a	Phon/Phon_run-02/PM010.wav	n/a	0	n/a
150.2579	3.875	P_O	1.0	n/a	n/a	2.0	0.506	Phon/Phon_run-02/PC015.wav	2.0	0	0.256
154.144	4.245	P_C	1.0	n/a	n/a	1.0	1.6969999999999998	Phon/Phon_run-02/ContS14.wav	1.0	1	2.447
158.3971	3.854	P_R	1.0	n/a	n/a	n/a	n/a	Phon/Phon_run-02/stereo_PR14.wav	n/a	0	n/a
162.2662	4.239	P_O	1.0	n/a	n/a	n/a	n/a	Phon/Phon_run-02/PC008.wav	n/a	0	n/a
166.5192	4.25	P_U	2.0	n/a	n/a	2.0	2.853	Phon/Phon_run-02/stereo_PU11.wav	2.0	1	2.603
170.7726	3.523	P_C	1.0	n/a	n/a	1.0	0.36700000000000005	Phon/Phon_run-02/ContS18.wav	1.0	1	1.117
174.3085	3.429	P_O	1.0	n/a	n/a	2.0	1.3840000000000001	Phon/Phon_run-02/PC006.wav	2.0	0	1.134
177.7443	4.18	P_R	1.0	n/a	n/a	1.0	1.091	Phon/Phon_run-02/stereo_PR32.wav	1.0	1	0.841
181.9307	4.104	P_R	1.0	n/a	n/a	n/a	n/a	Phon/Phon_run-02/stereo_PR24.wav	n/a	0	n/a
