onset	duration	trial_type	correct	window1_response	window1_RT	window2_response	window2_RT	stim_file	calculated_response	calculated_accuracy	calculated_RT
1.0918	4.2	S_U	2.0	n/a	n/a	2.0	1.7480000000000002	Sem/Sem_run-01/stereo_1SU41A0.wav	2.0	1	1.4980000000000002
5.2953	3.596	S_C	1.0	n/a	n/a	1.0	0.97	Sem/Sem_run-01/ContS29.wav	1.0	1	1.72
8.898	3.425	S_U	2.0	n/a	n/a	2.0	1.2409999999999999	Sem/Sem_run-01/stereo_2SU87A0.wav	2.0	1	0.9910000000000001
12.3338	3.933	S_H	1.0	n/a	n/a	1.0	1.402	Sem/Sem_run-01/stereo_1SH13A0.wav	1.0	1	1.152
16.2699	4.323	S_H	1.0	n/a	n/a	1.0	1.0190000000000001	Sem/Sem_run-01/stereo_1SH05A0.wav	1.0	1	0.7689999999999999
20.6064	4.073	S_C	1.0	n/a	n/a	1.0	1.103	Sem/Sem_run-01/ContS31.wav	1.0	1	1.853
24.6927	3.869	S_L	1.0	n/a	n/a	1.0	1.1740000000000002	Sem/Sem_run-01/stereo_2SL63A0.wav	1.0	1	0.9240000000000002
28.5634	3.75	S_L	1.0	n/a	n/a	2.0	1.694	Sem/Sem_run-01/stereo_1SL29A0.wav	2.0	0	1.444
32.3161	4.3660000000000005	S_U	2.0	n/a	n/a	1.0	1.296	Sem/Sem_run-01/stereo_2SU78A0.wav	1.0	0	1.046
36.6859	3.3	S_L	1.0	n/a	n/a	1.0	1.256	Sem/Sem_run-01/stereo_1SL17A0.wav	1.0	1	1.006
39.9885	3.884	S_C	1.0	n/a	n/a	1.0	0.8859999999999999	Sem/Sem_run-01/ContS05.wav	1.0	1	1.636
43.8755	4.371	S_H	1.0	n/a	n/a	1.0	1.168	Sem/Sem_run-01/stereo_2SH58A0.wav	1.0	1	0.9179999999999999
48.2606	4.329	S_L	1.0	n/a	n/a	1.0	1.015	Sem/Sem_run-01/stereo_2SL72A0.wav	1.0	1	0.7649999999999999
52.5971	3.94	S_H	1.0	n/a	n/a	2.0	1.04	Sem/Sem_run-01/stereo_2SH57A0.wav	2.0	0	0.79
56.55	4.2	S_U	2.0	n/a	n/a	1.0	1.4569999999999999	Sem/Sem_run-01/stereo_2SU83A0.wav	1.0	0	1.207
60.753	3.474	S_C	1.0	n/a	n/a	1.0	0.526	Sem/Sem_run-01/ContS11.wav	1.0	1	1.276
64.2389	4.271	S_L	1.0	n/a	n/a	1.0	0.982	Sem/Sem_run-01/stereo_1SL26A0.wav	1.0	1	0.732
68.5248	3.91	S_L	1.0	n/a	n/a	1.0	2.112	Sem/Sem_run-01/stereo_1SL25A0.wav	1.0	1	1.862
72.4443	4.479	S_C	1.0	n/a	n/a	1.0	1.034	Sem/Sem_run-01/ContS25.wav	1.0	1	1.784
76.9309	3.378	S_U	2.0	n/a	n/a	1.0	1.042	Sem/Sem_run-01/stereo_2SU81A0.wav	1.0	0	0.792
80.3167	3.42	S_L	1.0	n/a	n/a	1.0	1.234	Sem/Sem_run-01/stereo_1SL27A0.wav	1.0	1	0.984
83.7479	4.3439999999999985	S_L	1.0	n/a	n/a	1.0	1.328	Sem/Sem_run-01/stereo_1SL30A0.wav	1.0	1	1.078
88.1008	3.909	S_L	1.0	n/a	n/a	1.0	1.578	Sem/Sem_run-01/stereo_2SL71A0.wav	1.0	1	1.328
92.0205	3.867	S_H	1.0	n/a	n/a	1.0	1.4380000000000002	Sem/Sem_run-01/stereo_1SH04A0.wav	1.0	1	1.1880000000000002
95.8902	3.828	S_U	2.0	n/a	n/a	1.0	1.5819999999999999	Sem/Sem_run-01/stereo_1SU37A0.wav	1.0	0	1.332
99.7264	4.565	S_C	1.0	n/a	n/a	1.0	1.016	Sem/Sem_run-01/ContS35.wav	1.0	1	1.766
104.2964	3.3	S_U	2.0	n/a	n/a	n/a	n/a	Sem/Sem_run-01/stereo_1SU35A0.wav	n/a	0	n/a
107.5986	3.477	S_L	1.0	n/a	n/a	1.0	1.334	Sem/Sem_run-01/stereo_2SL65A0.wav	1.0	1	1.084
111.0845	3.83	S_H	1.0	n/a	n/a	2.0	1.176	Sem/Sem_run-01/stereo_1SH07A0.wav	2.0	0	0.9259999999999999
114.9207	4.3439999999999985	S_C	1.0	n/a	n/a	1.0	1.798	Sem/Sem_run-01/ContS07.wav	1.0	1	2.548
119.2738	3.5	S_H	1.0	n/a	n/a	1.0	1.609	Sem/Sem_run-01/stereo_1SH03A0.wav	1.0	1	1.359
122.7765	3.919	S_U	2.0	n/a	n/a	2.0	1.6669999999999998	Sem/Sem_run-01/stereo_1SU45A0.wav	2.0	1	1.4169999999999998
126.697	3.5	S_H	1.0	n/a	n/a	1.0	1.439	Sem/Sem_run-01/stereo_1SH06A0.wav	1.0	1	1.189
130.1996	3.392	S_L	1.0	n/a	n/a	1.0	1.811	Sem/Sem_run-01/stereo_2SL62A0.wav	1.0	1	1.561
133.6021	3.54	S_C	1.0	n/a	n/a	1.0	1.01	Sem/Sem_run-01/ContS19.wav	1.0	1	1.76
137.1547	4.4	S_H	1.0	n/a	n/a	1.0	1.781	Sem/Sem_run-01/stereo_1SH15A0.wav	1.0	1	1.531
141.5578	3.342	S_H	1.0	n/a	n/a	1.0	1.099	Sem/Sem_run-01/stereo_1SH11A0.wav	1.0	1	0.849
144.9103	3.385	S_U	2.0	n/a	n/a	2.0	1.475	Sem/Sem_run-01/stereo_1SU44A0.wav	2.0	1	1.225
148.2972	3.4160000000000004	S_H	1.0	n/a	n/a	1.0	1.1179999999999999	Sem/Sem_run-01/stereo_2SH56A0.wav	1.0	1	0.8680000000000001
151.7164	3.849	S_U	2.0	n/a	n/a	1.0	1.263	Sem/Sem_run-01/stereo_2SU82A0.wav	1.0	0	1.013
155.5691	3.934	S_C	1.0	n/a	n/a	2.0	0.943	Sem/Sem_run-01/ContS13.wav	2.0	0	1.693
159.506	4.309	S_L	1.0	n/a	n/a	1.0	1.633	Sem/Sem_run-01/stereo_2SL64A0.wav	1.0	1	1.383
163.8257	4.413	S_C	1.0	n/a	n/a	1.0	1.021	Sem/Sem_run-01/ContS17.wav	1.0	1	1.771
168.2456	4.2	S_U	2.0	n/a	n/a	1.0	1.492	Sem/Sem_run-01/stereo_2SU90A0.wav	1.0	0	1.242
172.4489	3.846	S_U	2.0	n/a	n/a	1.0	1.0590000000000002	Sem/Sem_run-01/stereo_2SU88A0.wav	1.0	0	0.8090000000000002
176.3017	3.3939999999999997	S_C	1.0	n/a	n/a	1.0	0.745	Sem/Sem_run-01/ContS01.wav	1.0	1	1.495
179.7041	4.013	S_C	1.0	n/a	n/a	1.0	0.36700000000000005	Sem/Sem_run-01/ContS23.wav	1.0	1	1.117
183.7237	4.227	S_H	1.0	n/a	n/a	1.0	1.601	Sem/Sem_run-01/stereo_1SH08A0.wav	1.0	1	1.351
