onset	duration	trial_type	correct	window1_response	window1_RT	window2_response	window2_RT	stim_file	calculated_response	calculated_accuracy	calculated_RT
1.133	6.343	SP_S	1.0	n/a	n/a	1.0	3.863	Plaus/Plaus_run-02/stereo_PC37.wav	1.0	1	1.7019999999999995
7.483	6.345	SP_W	1.0	n/a	n/a	2.0	3.653	Plaus/Plaus_run-02/stereo_PW74.wav	2.0	0	1.6840000000000002
13.833	6.095	SP_C	1.0	n/a	n/a	1.0	0.32899999999999996	Plaus/Plaus_run-02/CoM10d.wav	1.0	1	1.079
19.933	6.401	SP_I	2.0	n/a	n/a	2.0	2.679	Plaus/Plaus_run-02/stereo_PI56.wav	2.0	1	1.812
26.35	6.407	SP_W	1.0	n/a	n/a	1.0	3.608	Plaus/Plaus_run-02/stereo_PW39.wav	1.0	1	1.581
32.766	6.8420000000000005	SP_I	2.0	n/a	n/a	2.0	3.824	Plaus/Plaus_run-02/stereo_PI44.wav	2.0	1	1.6269999999999998
39.616	7.7	SP_C	1.0	n/a	n/a	1.0	1.785	Plaus/Plaus_run-02/CoM07e.wav	1.0	1	2.535
47.316	5.756	SP_S	1.0	n/a	n/a	2.0	3.035	Plaus/Plaus_run-02/stereo_PC03.wav	2.0	0	2.0930000000000004
53.083	7.372000000000001	SP_S	1.0	n/a	n/a	1.0	3.93	Plaus/Plaus_run-02/stereo_PC82.wav	1.0	1	1.875
60.466	6.095	SP_C	1.0	n/a	n/a	1.0	0.6729999999999999	Plaus/Plaus_run-02/CoM04d.wav	1.0	1	1.423
66.566	6.303	SP_I	2.0	n/a	n/a	2.0	3.1189999999999998	Plaus/Plaus_run-02/stereo_PI23.wav	2.0	1	2.135
72.882	5.655	SP_I	2.0	n/a	n/a	1.0	2.436	Plaus/Plaus_run-02/stereo_PI22.wav	1.0	0	1.517
78.54899999999998	6.85	SP_C	1.0	n/a	n/a	1.0	1.48	Plaus/Plaus_run-02/CoM08d.wav	1.0	1	2.23
85.399	6.9179999999999975	SP_S	1.0	n/a	n/a	2.0	3.574	Plaus/Plaus_run-02/stereo_PC79.wav	2.0	0	1.3280000000000003
92.33200000000001	5.233	SP_I	2.0	n/a	n/a	2.0	3.073	Plaus/Plaus_run-02/stereo_PI21.wav	2.0	1	2.0330000000000004
97.565	6.385	SP_S	1.0	n/a	n/a	1.0	2.339	Plaus/Plaus_run-02/stereo_PC46.wav	1.0	1	1.3769999999999998
103.965	6.282	SP_W	1.0	n/a	n/a	2.0	2.8089999999999997	Plaus/Plaus_run-02/stereo_PW64.wav	2.0	0	1.7030000000000003
110.24799999999999	7.69	SP_C	1.0	n/a	n/a	1.0	0.522	Plaus/Plaus_run-02/CoM04e.wav	1.0	1	1.272
117.948	6.316	SP_I	2.0	n/a	n/a	2.0	3.7880000000000003	Plaus/Plaus_run-02/stereo_PI34.wav	2.0	1	1.6309999999999998
124.265	5.47	SP_C	1.0	n/a	n/a	1.0	1.168	Plaus/Plaus_run-02/CoM10b.wav	1.0	1	1.9180000000000001
129.748	5.636	SP_I	2.0	n/a	n/a	2.0	2.918	Plaus/Plaus_run-02/stereo_PI55.wav	2.0	1	2.079
135.398	7.461	SP_W	1.0	n/a	n/a	1.0	3.8139999999999996	Plaus/Plaus_run-02/stereo_PW83.wav	1.0	1	1.8100000000000005
142.864	5.48	SP_C	1.0	n/a	n/a	1.0	0.499	Plaus/Plaus_run-02/CoM01b.wav	1.0	1	1.249
148.34799999999996	6.2120000000000015	SP_W	1.0	n/a	n/a	2.0	2.6860000000000004	Plaus/Plaus_run-02/stereo_PW08.wav	2.0	0	1.8250000000000004
154.564	4.694	SP_W	1.0	n/a	n/a	1.0	2.475	Plaus/Plaus_run-02/stereo_PW07.wav	1.0	1	1.6
159.264	6.197	SP_I	2.0	n/a	n/a	2.0	3.872	Plaus/Plaus_run-02/stereo_PI43.wav	2.0	1	1.8120000000000005
165.46400000000003	6.1979999999999995	SP_S	1.0	n/a	n/a	1.0	2.432	Plaus/Plaus_run-02/stereo_PC59.wav	1.0	1	1.431
171.66400000000004	7.345	SP_C	1.0	n/a	n/a	1.0	1.202	Plaus/Plaus_run-02/CoM05l.wav	1.0	1	1.952
179.014	5.2429999999999986	SP_S	1.0	n/a	n/a	1.0	2.391	Plaus/Plaus_run-02/stereo_PC02.wav	1.0	1	1.5119999999999998
184.264	6.82	SP_C	1.0	n/a	n/a	1.0	1.611	Plaus/Plaus_run-02/CoM09l.wav	1.0	1	2.361
191.097	7.183	SP_I	2.0	n/a	n/a	2.0	3.742	Plaus/Plaus_run-02/stereo_PI78.wav	2.0	1	1.824
198.28	6.727	SP_W	1.0	n/a	n/a	1.0	3.576	Plaus/Plaus_run-02/stereo_PW40.wav	1.0	1	1.3430000000000002
205.013	5.181	SP_S	1.0	n/a	n/a	1.0	3.102	Plaus/Plaus_run-02/stereo_PC60.wav	1.0	1	1.812
210.197	7.135	SP_W	1.0	n/a	n/a	1.0	3.375	Plaus/Plaus_run-02/stereo_PW73.wav	1.0	1	1.4429999999999996
217.34599999999998	6.76	SP_C	1.0	n/a	n/a	1.0	0.672	Plaus/Plaus_run-02/CoM04l.wav	1.0	1	1.4220000000000002
224.113	6.682	SP_I	2.0	n/a	n/a	2.0	3.608	Plaus/Plaus_run-02/stereo_PI75.wav	2.0	1	1.6119999999999999
230.796	6.002999999999999	SP_W	1.0	n/a	n/a	1.0	2.7439999999999998	Plaus/Plaus_run-02/stereo_PW63.wav	1.0	1	1.5970000000000002
236.813	5.0760000000000005	SP_W	1.0	n/a	n/a	1.0	2.948	Plaus/Plaus_run-02/stereo_PW05.wav	1.0	1	2.17
241.896	6.218	SP_S	1.0	n/a	n/a	1.0	3.7960000000000003	Plaus/Plaus_run-02/stereo_PC69.wav	1.0	1	1.5590000000000002
248.12900000000002	6.569	SP_S	1.0	n/a	n/a	1.0	3.42	Plaus/Plaus_run-02/stereo_PC70.wav	1.0	1	1.544
