onset	duration	trial_type	correct	window1_response	window1_RT	window2_response	window2_RT	stim_file	calculated_response	calculated_accuracy	calculated_RT
1.233	4.2010000000000005	S_U	2.0	n/a	n/a	2.0	2.105	Sem/Sem_run-02/stereo_1SU33A0.wav	2.0	1	1.855
5.45	3.486	S_U	2.0	n/a	n/a	1.0	1.367	Sem/Sem_run-02/stereo_2SU85A0.wav	1.0	0	1.117
8.95	3.8539999999999996	S_H	1.0	n/a	n/a	1.0	1.511	Sem/Sem_run-02/stereo_2SH50A0.wav	1.0	1	1.261
12.816	3.454	S_C	1.0	n/a	n/a	1.0	0.11699999999999999	Sem/Sem_run-02/ContS08.wav	1.0	1	0.867
16.283	4.33	S_H	1.0	n/a	n/a	2.0	1.294	Sem/Sem_run-02/stereo_1SH10A0.wav	2.0	0	1.044
20.616	3.872	S_L	1.0	n/a	n/a	n/a	n/a	Sem/Sem_run-02/stereo_2SL61A0.wav	1.0	1	3.013
24.5	3.885	S_L	1.0	1.0	0.141	2.0	1.3430000000000002	Sem/Sem_run-02/stereo_1SL23A0.wav	2.0	0	1.0930000000000002
28.4	4.2	S_U	2.0	n/a	n/a	n/a	n/a	Sem/Sem_run-02/stereo_1SU42A0.wav	n/a	0	n/a
32.616	3.321	S_L	1.0	n/a	n/a	1.0	1.1909999999999998	Sem/Sem_run-02/stereo_1SL16A0.wav	1.0	1	0.9409999999999998
35.949	3.59	S_C	1.0	n/a	n/a	1.0	0.028999999999999998	Sem/Sem_run-02/ContS26.wav	1.0	1	0.779
39.549	4.4	S_H	1.0	n/a	n/a	1.0	1.5290000000000001	Sem/Sem_run-02/stereo_2SH60A0.wav	1.0	1	1.279
43.949	4.311	S_L	1.0	n/a	n/a	2.0	2.06	Sem/Sem_run-02/stereo_2SL75A0.wav	2.0	0	1.81
48.26600000000001	3.912	S_H	1.0	n/a	n/a	1.0	1.2229999999999999	Sem/Sem_run-02/stereo_2SH59A0.wav	1.0	1	0.9730000000000001
52.182	4.4	S_U	2.0	n/a	n/a	2.0	3.008	Sem/Sem_run-02/stereo_2SU84A0.wav	2.0	1	2.758
56.582	3.4210000000000003	S_U	2.0	n/a	n/a	2.0	1.535	Sem/Sem_run-02/stereo_1SU43A0.wav	2.0	1	1.285
60.01600000000001	3.8539999999999996	S_C	1.0	1.0	0.7020000000000001	n/a	n/a	Sem/Sem_run-02/ContS02.wav	1.0	1	0.7020000000000001
63.882	4.37	S_L	1.0	n/a	n/a	1.0	1.886	Sem/Sem_run-02/stereo_1SL19A0.wav	1.0	1	1.636
68.265	3.862	S_L	1.0	n/a	n/a	2.0	1.6569999999999998	Sem/Sem_run-02/stereo_1SL18A0.wav	2.0	0	1.4069999999999998
72.132	4.462	S_C	1.0	n/a	n/a	1.0	0.032	Sem/Sem_run-02/ContS22.wav	1.0	1	0.782
76.59899999999998	3.406	S_L	1.0	n/a	n/a	1.0	1.105	Sem/Sem_run-02/stereo_1SL21A0.wav	1.0	1	0.855
80.015	3.355	S_U	2.0	n/a	n/a	2.0	1.8659999999999999	Sem/Sem_run-02/stereo_1SU36A0.wav	2.0	1	1.616
83.382	4.324	S_C	1.0	n/a	n/a	1.0	0.312	Sem/Sem_run-02/ContS04.wav	1.0	1	1.062
87.715	4.253	S_L	1.0	n/a	n/a	1.0	1.6440000000000001	Sem/Sem_run-02/stereo_1SL24A0.wav	1.0	1	1.394
91.982	3.839	S_L	1.0	n/a	n/a	1.0	1.6680000000000001	Sem/Sem_run-02/stereo_2SL70A0.wav	1.0	1	1.418
95.832	4.395	S_C	1.0	n/a	n/a	1.0	0.19699999999999998	Sem/Sem_run-02/ContS14.wav	1.0	1	0.9470000000000001
100.232	3.8739999999999997	S_H	1.0	n/a	n/a	2.0	1.604	Sem/Sem_run-02/stereo_1SH09A0.wav	2.0	0	1.354
104.115	3.75	S_U	2.0	n/a	n/a	2.0	2.189	Sem/Sem_run-02/stereo_1SU32A0.wav	2.0	1	1.939
107.865	3.641	S_C	1.0	n/a	n/a	1.0	0.023	Sem/Sem_run-02/ContS34.wav	1.0	1	0.773
111.515	3.338	S_U	2.0	n/a	n/a	1.0	1.527	Sem/Sem_run-02/stereo_1SU31A0.wav	1.0	0	1.277
114.865	3.45	S_L	1.0	n/a	n/a	1.0	1.886	Sem/Sem_run-02/stereo_2SL68A0.wav	1.0	1	1.636
118.315	3.8510000000000004	S_H	1.0	n/a	n/a	1.0	1.584	Sem/Sem_run-02/stereo_1SH14A0.wav	1.0	1	1.334
122.181	3.459	S_H	1.0	n/a	n/a	1.0	2.174	Sem/Sem_run-02/stereo_1SH01A0.wav	1.0	1	1.924
125.648	3.512	S_C	1.0	n/a	n/a	1.0	0.629	Sem/Sem_run-02/ContS16.wav	1.0	1	1.379
129.164	3.489	S_H	1.0	n/a	n/a	2.0	1.507	Sem/Sem_run-02/stereo_1SH12A0.wav	2.0	0	1.257
132.664	3.8489999999999998	S_U	2.0	n/a	n/a	2.0	2.121	Sem/Sem_run-02/stereo_2SU86A0.wav	2.0	1	1.871
136.514	3.46	S_L	1.0	n/a	n/a	2.0	1.795	Sem/Sem_run-02/stereo_1SL28A0.wav	2.0	0	1.545
139.981	4.53	S_C	1.0	n/a	n/a	1.0	0.017	Sem/Sem_run-02/ContS32.wav	1.0	1	0.767
144.514	4.351	S_H	1.0	n/a	n/a	1.0	1.5819999999999999	Sem/Sem_run-02/stereo_2SH52A0.wav	1.0	1	1.332
148.881	3.48	S_H	1.0	n/a	n/a	1.0	1.983	Sem/Sem_run-02/stereo_2SH47A0.wav	1.0	1	1.733
152.364	3.3	S_H	1.0	n/a	n/a	1.0	1.6280000000000001	Sem/Sem_run-02/stereo_2SH53A0.wav	1.0	1	1.378
155.664	3.847	S_U	2.0	n/a	n/a	n/a	n/a	Sem/Sem_run-02/stereo_1SU39A0.wav	n/a	0	n/a
159.514	3.923	S_C	1.0	2.0	0.01	1.0	0.919	Sem/Sem_run-02/ContS10.wav	2.0	0	0.01
163.447	3.7510000000000003	S_U	2.0	n/a	n/a	2.0	1.411	Sem/Sem_run-02/stereo_2SU80A0.wav	2.0	1	1.161
167.21400000000003	4.2	S_L	1.0	n/a	n/a	1.0	1.5519999999999998	Sem/Sem_run-02/stereo_2SL66A0.wav	1.0	1	1.3019999999999998
171.41400000000004	3.99	S_C	1.0	n/a	n/a	1.0	0.838	Sem/Sem_run-02/ContS20.wav	1.0	1	1.588
175.41400000000004	4.041	S_C	1.0	n/a	n/a	1.0	0.8640000000000001	Sem/Sem_run-02/ContS28.wav	1.0	1	1.614
179.46400000000003	4.2	S_U	2.0	n/a	n/a	2.0	2.665	Sem/Sem_run-02/stereo_2SU89A0.wav	2.0	1	2.415
183.664	4.368	S_H	1.0	n/a	n/a	1.0	1.6019999999999999	Sem/Sem_run-02/stereo_2SH46A0.wav	1.0	1	1.352
