onset	duration	trial_type	correct	window1_response	window1_RT	window2_response	window2_RT	stim_file	calculated_response	calculated_accuracy	calculated_RT
1.133	3.5	P_R	1.0	n/a	n/a	1.0	1.845	Phon/Phon_run-02/stereo_PR20.wav	1.0	1	1.595
4.633	4.235	P_O	1.0	n/a	n/a	1.0	1.23	Phon/Phon_run-02/PC034.wav	1.0	1	0.98
8.883	3.375	P_R	1.0	n/a	n/a	1.0	2.01	Phon/Phon_run-02/stereo_PR13.wav	1.0	1	1.7599999999999998
12.265999999999998	3.474	P_C	1.0	n/a	n/a	1.0	0.273	Phon/Phon_run-02/ContS12.wav	1.0	1	1.0230000000000001
15.749	3.875	P_U	2.0	n/a	n/a	2.0	1.321	Phon/Phon_run-02/PM025.wav	2.0	1	1.071
19.633	3.726	P_R	1.0	n/a	n/a	1.0	1.185	Phon/Phon_run-02/stereo_PR22.wav	1.0	1	0.935
23.366	3.451	P_O	1.0	n/a	n/a	2.0	1.0590000000000002	Phon/Phon_run-02/PC014.wav	2.0	0	0.8090000000000002
26.833000000000002	3.779	P_C	1.0	n/a	n/a	2.0	0.098	Phon/Phon_run-02/ContS02.wav	2.0	0	0.848
30.616	3.821	P_U	2.0	n/a	n/a	2.0	1.5330000000000001	Phon/Phon_run-02/stereo_PU18.wav	2.0	1	1.2830000000000001
34.449	3.49	P_U	2.0	n/a	n/a	2.0	2.258	Phon/Phon_run-02/stereo_PU12.wav	2.0	1	2.008
37.949	4.38	P_C	1.0	n/a	n/a	1.0	0.292	Phon/Phon_run-02/ContS32.wav	1.0	1	1.042
42.332	4.0969999999999995	P_R	1.0	n/a	n/a	2.0	1.4609999999999999	Phon/Phon_run-02/stereo_PR16.wav	2.0	0	1.2109999999999999
46.43199999999999	3.5	P_O	1.0	n/a	n/a	1.0	1.179	Phon/Phon_run-02/PC022.wav	1.0	1	0.929
49.93199999999999	4.0760000000000005	P_R	1.0	n/a	n/a	1.0	1.117	Phon/Phon_run-02/stereo_PR08.wav	1.0	1	0.867
54.015	3.5	P_O	1.0	n/a	n/a	1.0	2.202	Phon/Phon_run-02/PC028.wav	1.0	1	1.952
57.515	3.5	P_U	2.0	n/a	n/a	2.0	1.786	Phon/Phon_run-02/stereo_PU27.wav	2.0	1	1.536
61.015	3.819	P_C	1.0	n/a	n/a	1.0	0.508	Phon/Phon_run-02/ContS06.wav	1.0	1	1.258
64.84899999999999	4.25	P_O	1.0	n/a	n/a	2.0	2.3569999999999998	Phon/Phon_run-02/PC031.wav	2.0	0	2.1069999999999998
69.115	3.662	P_C	1.0	n/a	n/a	1.0	0.155	Phon/Phon_run-02/ContS36.wav	1.0	1	0.905
72.782	3.823	P_O	1.0	n/a	n/a	1.0	1.214	Phon/Phon_run-02/PC023.wav	1.0	1	0.964
76.615	4.323	P_C	1.0	n/a	n/a	1.0	0.42	Phon/Phon_run-02/ContS24.wav	1.0	1	1.17
80.94800000000002	3.865	P_U	2.0	n/a	n/a	2.0	1.8940000000000001	Phon/Phon_run-02/PM004.wav	2.0	1	1.6440000000000001
84.815	3.875	P_O	1.0	n/a	n/a	1.0	1.222	Phon/Phon_run-02/PC007.wav	1.0	1	0.972
88.698	4.25	P_U	2.0	n/a	n/a	2.0	3.096	Phon/Phon_run-02/PM011.wav	2.0	1	2.846
92.948	4.362	P_C	1.0	n/a	n/a	1.0	0.502	Phon/Phon_run-02/ContS30.wav	1.0	1	1.252
97.315	3.875	P_O	1.0	n/a	n/a	2.0	1.811	Phon/Phon_run-02/PC030.wav	2.0	0	1.561
101.198	3.3360000000000003	P_R	1.0	n/a	n/a	1.0	1.829	Phon/Phon_run-02/stereo_PR05.wav	1.0	1	1.579
104.54799999999999	4.113	P_U	2.0	n/a	n/a	2.0	1.146	Phon/Phon_run-02/stereo_PU01.wav	2.0	1	0.8959999999999999
108.664	4.1739999999999995	P_U	2.0	n/a	n/a	1.0	1.305	Phon/Phon_run-02/PM029.wav	1.0	0	1.055
112.848	3.4539999999999997	P_C	1.0	n/a	n/a	1.0	0.965	Phon/Phon_run-02/ContS08.wav	1.0	1	1.7149999999999999
116.314	3.446	P_R	1.0	n/a	n/a	2.0	1.3090000000000002	Phon/Phon_run-02/stereo_PR30.wav	2.0	0	1.0590000000000002
119.764	3.85	P_R	1.0	n/a	n/a	1.0	2.138	Phon/Phon_run-02/stereo_PR07.wav	1.0	1	1.888
123.61399999999999	3.438	P_U	2.0	n/a	n/a	1.0	1.298	Phon/Phon_run-02/stereo_PU02.wav	1.0	0	1.048
127.064	3.915	P_C	1.0	n/a	n/a	1.0	0.507	Phon/Phon_run-02/ContS20.wav	1.0	1	1.2570000000000001
130.981	3.487	P_U	2.0	n/a	n/a	2.0	2.125	Phon/Phon_run-02/PM021.wav	2.0	1	1.875
134.481	3.965	P_C	1.0	n/a	n/a	1.0	0.307	Phon/Phon_run-02/ContS26.wav	1.0	1	1.057
138.447	3.792	P_R	1.0	n/a	n/a	1.0	1.349	Phon/Phon_run-02/stereo_PR31.wav	1.0	1	1.099
142.247	4.135	P_O	1.0	n/a	n/a	2.0	1.774	Phon/Phon_run-02/PC024.wav	2.0	0	1.524
146.39700000000005	3.875	P_U	2.0	n/a	n/a	1.0	0.9279999999999999	Phon/Phon_run-02/PM010.wav	1.0	0	0.6779999999999999
150.28	3.875	P_O	1.0	n/a	n/a	2.0	1.215	Phon/Phon_run-02/PC015.wav	2.0	0	0.9650000000000001
154.164	4.245	P_C	1.0	n/a	n/a	1.0	0.4370000000000001	Phon/Phon_run-02/ContS14.wav	1.0	1	1.187
158.414	3.854	P_R	1.0	n/a	n/a	2.0	1.284	Phon/Phon_run-02/stereo_PR14.wav	2.0	0	1.034
162.28	4.239	P_O	1.0	n/a	n/a	1.0	1.026	Phon/Phon_run-02/PC008.wav	1.0	1	0.776
166.53	4.25	P_U	2.0	n/a	n/a	2.0	1.2209999999999999	Phon/Phon_run-02/stereo_PU11.wav	2.0	1	0.9709999999999999
170.78	3.523	P_C	1.0	n/a	n/a	1.0	0.295	Phon/Phon_run-02/ContS18.wav	1.0	1	1.045
174.313	3.429	P_O	1.0	n/a	n/a	1.0	1.128	Phon/Phon_run-02/PC006.wav	1.0	1	0.8779999999999999
177.747	4.18	P_R	1.0	n/a	n/a	2.0	1.472	Phon/Phon_run-02/stereo_PR32.wav	2.0	0	1.222
181.93	4.104	P_R	1.0	n/a	n/a	1.0	1.0490000000000002	Phon/Phon_run-02/stereo_PR24.wav	1.0	1	0.7990000000000002
