onset	duration	trial_type	correct	window1_response	window1_RT	window2_response	window2_RT	stim_file	calculated_response	calculated_accuracy	calculated_RT
1.068	4.2	S_U	2.0	n/a	n/a	2.0	1.837	Sem/Sem_run-01/stereo_1SU41A0.wav	2.0	1	1.587
5.271	3.596	S_C	1.0	n/a	n/a	1.0	0.581	Sem/Sem_run-01/ContS29.wav	1.0	1	1.331
8.874	3.425	S_U	2.0	n/a	n/a	2.0	1.263	Sem/Sem_run-01/stereo_2SU87A0.wav	2.0	1	1.013
12.31	3.933	S_H	1.0	n/a	n/a	1.0	1.564	Sem/Sem_run-01/stereo_1SH13A0.wav	1.0	1	1.314
16.246	4.323	S_H	1.0	n/a	n/a	1.0	1.197	Sem/Sem_run-01/stereo_1SH05A0.wav	1.0	1	0.9470000000000001
20.583000000000002	4.073	S_C	1.0	n/a	n/a	1.0	0.7240000000000001	Sem/Sem_run-01/ContS31.wav	1.0	1	1.4740000000000002
24.669	3.869	S_L	1.0	n/a	n/a	2.0	1.339	Sem/Sem_run-01/stereo_2SL63A0.wav	2.0	0	1.089
28.539	3.75	S_L	1.0	n/a	n/a	1.0	1.349	Sem/Sem_run-01/stereo_1SL29A0.wav	1.0	1	1.099
32.292	4.3660000000000005	S_U	2.0	n/a	n/a	2.0	1.232	Sem/Sem_run-01/stereo_2SU78A0.wav	2.0	1	0.982
36.662	3.3	S_L	1.0	n/a	n/a	1.0	1.209	Sem/Sem_run-01/stereo_1SL17A0.wav	1.0	1	0.9590000000000001
39.964	3.884	S_C	1.0	n/a	n/a	1.0	0.9690000000000001	Sem/Sem_run-01/ContS05.wav	1.0	1	1.7189999999999999
43.85	4.371	S_H	1.0	n/a	n/a	1.0	1.171	Sem/Sem_run-01/stereo_2SH58A0.wav	1.0	1	0.921
48.236999999999995	4.329	S_L	1.0	n/a	n/a	1.0	0.99	Sem/Sem_run-01/stereo_2SL72A0.wav	1.0	1	0.74
52.574	3.94	S_H	1.0	n/a	n/a	1.0	1.213	Sem/Sem_run-01/stereo_2SH57A0.wav	1.0	1	0.9630000000000001
56.527	4.2	S_U	2.0	n/a	n/a	2.0	1.0270000000000001	Sem/Sem_run-01/stereo_2SU83A0.wav	2.0	1	0.7769999999999999
60.73	3.474	S_C	1.0	n/a	n/a	1.0	1.181	Sem/Sem_run-01/ContS11.wav	1.0	1	1.931
64.21600000000001	4.271	S_L	1.0	n/a	n/a	1.0	1.4180000000000001	Sem/Sem_run-01/stereo_1SL26A0.wav	1.0	1	1.168
68.503	3.91	S_L	1.0	n/a	n/a	2.0	1.706	Sem/Sem_run-01/stereo_1SL25A0.wav	2.0	0	1.456
72.422	4.479	S_C	1.0	n/a	n/a	1.0	0.816	Sem/Sem_run-01/ContS25.wav	1.0	1	1.5659999999999998
76.90899999999998	3.378	S_U	2.0	n/a	n/a	2.0	1.416	Sem/Sem_run-01/stereo_2SU81A0.wav	2.0	1	1.166
80.295	3.42	S_L	1.0	n/a	n/a	1.0	1.365	Sem/Sem_run-01/stereo_1SL27A0.wav	1.0	1	1.115
83.73100000000002	4.3439999999999985	S_L	1.0	n/a	n/a	1.0	1.183	Sem/Sem_run-01/stereo_1SL30A0.wav	1.0	1	0.933
88.084	3.909	S_L	1.0	n/a	n/a	1.0	1.42	Sem/Sem_run-01/stereo_2SL71A0.wav	1.0	1	1.17
92.00399999999999	3.867	S_H	1.0	n/a	n/a	2.0	1.202	Sem/Sem_run-01/stereo_1SH04A0.wav	2.0	0	0.952
95.87299999999999	3.828	S_U	2.0	n/a	n/a	2.0	1.375	Sem/Sem_run-01/stereo_1SU37A0.wav	2.0	1	1.125
99.71	4.565	S_C	1.0	n/a	n/a	2.0	1.083	Sem/Sem_run-01/ContS35.wav	2.0	0	1.833
104.28	3.3	S_U	2.0	n/a	n/a	n/a	n/a	Sem/Sem_run-01/stereo_1SU35A0.wav	n/a	0	n/a
107.58200000000001	3.477	S_L	1.0	n/a	n/a	1.0	1.7369999999999999	Sem/Sem_run-01/stereo_2SL65A0.wav	1.0	1	1.487
111.068	3.83	S_H	1.0	n/a	n/a	1.0	1.21	Sem/Sem_run-01/stereo_1SH07A0.wav	1.0	1	0.96
114.905	4.3439999999999985	S_C	1.0	n/a	n/a	1.0	0.332	Sem/Sem_run-01/ContS07.wav	1.0	1	1.082
119.258	3.5	S_H	1.0	n/a	n/a	1.0	1.28	Sem/Sem_run-01/stereo_1SH03A0.wav	1.0	1	1.03
122.76100000000001	3.919	S_U	2.0	n/a	n/a	2.0	1.51	Sem/Sem_run-01/stereo_1SU45A0.wav	2.0	1	1.26
126.68	3.5	S_H	1.0	n/a	n/a	1.0	1.671	Sem/Sem_run-01/stereo_1SH06A0.wav	1.0	1	1.421
130.183	3.392	S_L	1.0	n/a	n/a	1.0	1.4609999999999999	Sem/Sem_run-01/stereo_2SL62A0.wav	1.0	1	1.211
133.585	3.54	S_C	1.0	n/a	n/a	1.0	1.5919999999999999	Sem/Sem_run-01/ContS19.wav	1.0	1	2.342
137.138	4.4	S_H	1.0	n/a	n/a	1.0	1.314	Sem/Sem_run-01/stereo_1SH15A0.wav	1.0	1	1.064
141.542	3.342	S_H	1.0	n/a	n/a	1.0	1.042	Sem/Sem_run-01/stereo_1SH11A0.wav	1.0	1	0.792
144.894	3.385	S_U	2.0	n/a	n/a	2.0	1.206	Sem/Sem_run-01/stereo_1SU44A0.wav	2.0	1	0.956
148.28	3.4160000000000004	S_H	1.0	n/a	n/a	1.0	1.324	Sem/Sem_run-01/stereo_2SH56A0.wav	1.0	1	1.074
151.69899999999996	3.849	S_U	2.0	n/a	n/a	2.0	1.246	Sem/Sem_run-01/stereo_2SU82A0.wav	2.0	1	0.996
155.55200000000005	3.934	S_C	1.0	n/a	n/a	1.0	1.125	Sem/Sem_run-01/ContS13.wav	1.0	1	1.875
159.489	4.309	S_L	1.0	n/a	n/a	1.0	1.244	Sem/Sem_run-01/stereo_2SL64A0.wav	1.0	1	0.994
163.808	4.413	S_C	1.0	1.0	0.677	n/a	n/a	Sem/Sem_run-01/ContS17.wav	1.0	1	0.677
168.229	4.2	S_U	2.0	n/a	n/a	2.0	1.3030000000000002	Sem/Sem_run-01/stereo_2SU90A0.wav	2.0	1	1.0530000000000002
172.43200000000004	3.846	S_U	2.0	n/a	n/a	1.0	1.4240000000000002	Sem/Sem_run-01/stereo_2SU88A0.wav	1.0	0	1.1740000000000002
176.285	3.3939999999999997	S_C	1.0	n/a	n/a	n/a	n/a	Sem/Sem_run-01/ContS01.wav	n/a	0	n/a
179.687	4.013	S_C	1.0	1.0	0.613	n/a	n/a	Sem/Sem_run-01/ContS23.wav	1.0	1	0.613
183.707	4.227	S_H	1.0	n/a	n/a	2.0	1.136	Sem/Sem_run-01/stereo_1SH08A0.wav	2.0	0	0.8859999999999999
