onset	duration	trial_type	correct	window1_response	window1_RT	window2_response	window2_RT	stim_file	calculated_response	calculated_accuracy	calculated_RT
1.117	3.5	P_R	1.0	n/a	n/a	1.0	1.3969999999999998	Phon/Phon_run-02/stereo_PR20.wav	1.0	1	1.1469999999999998
4.617	4.235	P_O	1.0	n/a	n/a	1.0	1.24	Phon/Phon_run-02/PC034.wav	1.0	1	0.99
8.867	3.375	P_R	1.0	n/a	n/a	1.0	1.0270000000000001	Phon/Phon_run-02/stereo_PR13.wav	1.0	1	0.7769999999999999
12.25	3.474	P_C	1.0	1.0	0.565	1.0	0.294	Phon/Phon_run-02/ContS12.wav	1.0	1	0.565
15.732999999999999	3.875	P_U	2.0	n/a	n/a	2.0	1.469	Phon/Phon_run-02/PM025.wav	2.0	1	1.219
19.617	3.726	P_R	1.0	n/a	n/a	1.0	1.308	Phon/Phon_run-02/stereo_PR22.wav	1.0	1	1.058
23.35	3.451	P_O	1.0	n/a	n/a	2.0	1.443	Phon/Phon_run-02/PC014.wav	2.0	0	1.193
26.816	3.779	P_C	1.0	n/a	n/a	1.0	0.39	Phon/Phon_run-02/ContS02.wav	1.0	1	1.1400000000000001
30.6	3.821	P_U	2.0	n/a	n/a	2.0	1.6669999999999998	Phon/Phon_run-02/stereo_PU18.wav	2.0	1	1.4169999999999998
34.433	3.49	P_U	2.0	n/a	n/a	2.0	1.544	Phon/Phon_run-02/stereo_PU12.wav	2.0	1	1.294
37.933	4.38	P_C	1.0	1.0	0.6779999999999999	1.0	0.39399999999999996	Phon/Phon_run-02/ContS32.wav	1.0	1	0.6779999999999999
42.316	4.0969999999999995	P_R	1.0	n/a	n/a	1.0	1.402	Phon/Phon_run-02/stereo_PR16.wav	1.0	1	1.152
46.416000000000004	3.5	P_O	1.0	n/a	n/a	1.0	1.514	Phon/Phon_run-02/PC022.wav	1.0	1	1.264
49.916000000000004	4.0760000000000005	P_R	1.0	n/a	n/a	1.0	1.46	Phon/Phon_run-02/stereo_PR08.wav	1.0	1	1.21
53.99899999999999	3.5	P_O	1.0	n/a	n/a	1.0	1.347	Phon/Phon_run-02/PC028.wav	1.0	1	1.097
57.49899999999999	3.5	P_U	2.0	n/a	n/a	2.0	1.879	Phon/Phon_run-02/stereo_PU27.wav	2.0	1	1.629
60.99899999999999	3.819	P_C	1.0	1.0	0.655	1.0	0.313	Phon/Phon_run-02/ContS06.wav	1.0	1	0.655
64.832	4.25	P_O	1.0	n/a	n/a	1.0	1.347	Phon/Phon_run-02/PC031.wav	1.0	1	1.097
69.082	3.662	P_C	1.0	1.0	0.617	1.0	0.565	Phon/Phon_run-02/ContS36.wav	1.0	1	0.617
72.749	3.823	P_O	1.0	n/a	n/a	2.0	1.548	Phon/Phon_run-02/PC023.wav	2.0	0	1.298
76.582	4.323	P_C	1.0	1.0	0.637	1.0	0.555	Phon/Phon_run-02/ContS24.wav	1.0	1	0.637
80.915	3.865	P_U	2.0	n/a	n/a	2.0	1.429	Phon/Phon_run-02/PM004.wav	2.0	1	1.179
84.78200000000002	3.875	P_O	1.0	n/a	n/a	1.0	1.2109999999999999	Phon/Phon_run-02/PC007.wav	1.0	1	0.9610000000000001
88.665	4.25	P_U	2.0	n/a	n/a	2.0	1.32	Phon/Phon_run-02/PM011.wav	2.0	1	1.07
92.915	4.362	P_C	1.0	1.0	0.7340000000000001	1.0	0.568	Phon/Phon_run-02/ContS30.wav	1.0	1	0.7340000000000001
97.281	3.875	P_O	1.0	n/a	n/a	2.0	1.213	Phon/Phon_run-02/PC030.wav	2.0	0	0.9630000000000001
101.165	3.3360000000000003	P_R	1.0	n/a	n/a	1.0	1.7730000000000001	Phon/Phon_run-02/stereo_PR05.wav	1.0	1	1.523
104.515	4.113	P_U	2.0	n/a	n/a	2.0	1.306	Phon/Phon_run-02/stereo_PU01.wav	2.0	1	1.056
108.631	4.1739999999999995	P_U	2.0	n/a	n/a	2.0	1.472	Phon/Phon_run-02/PM029.wav	2.0	1	1.222
112.814	3.4539999999999997	P_C	1.0	1.0	0.684	1.0	0.45399999999999996	Phon/Phon_run-02/ContS08.wav	1.0	1	0.684
116.281	3.446	P_R	1.0	n/a	n/a	1.0	1.181	Phon/Phon_run-02/stereo_PR30.wav	1.0	1	0.931
119.73100000000001	3.85	P_R	1.0	n/a	n/a	1.0	1.2890000000000001	Phon/Phon_run-02/stereo_PR07.wav	1.0	1	1.039
123.581	3.438	P_U	2.0	n/a	n/a	2.0	1.3030000000000002	Phon/Phon_run-02/stereo_PU02.wav	2.0	1	1.0530000000000002
127.031	3.915	P_C	1.0	1.0	0.637	1.0	0.425	Phon/Phon_run-02/ContS20.wav	1.0	1	0.637
130.947	3.487	P_U	2.0	n/a	n/a	2.0	1.406	Phon/Phon_run-02/PM021.wav	2.0	1	1.156
134.447	3.965	P_C	1.0	1.0	0.515	1.0	0.4	Phon/Phon_run-02/ContS26.wav	1.0	1	0.515
138.414	3.792	P_R	1.0	n/a	n/a	1.0	1.085	Phon/Phon_run-02/stereo_PR31.wav	1.0	1	0.835
142.214	4.135	P_O	1.0	n/a	n/a	1.0	1.2919999999999998	Phon/Phon_run-02/PC024.wav	1.0	1	1.0419999999999998
146.364	3.875	P_U	2.0	n/a	n/a	1.0	1.921	Phon/Phon_run-02/PM010.wav	1.0	0	1.671
150.247	3.875	P_O	1.0	n/a	n/a	1.0	1.94	Phon/Phon_run-02/PC015.wav	1.0	1	1.69
154.13	4.245	P_C	1.0	n/a	n/a	1.0	0.03	Phon/Phon_run-02/ContS14.wav	1.0	1	0.78
158.38	3.854	P_R	1.0	n/a	n/a	1.0	1.8719999999999999	Phon/Phon_run-02/stereo_PR14.wav	1.0	1	1.622
162.246	4.239	P_O	1.0	n/a	n/a	n/a	n/a	Phon/Phon_run-02/PC008.wav	n/a	0	n/a
166.49599999999995	4.25	P_U	2.0	n/a	n/a	2.0	1.6969999999999998	Phon/Phon_run-02/stereo_PU11.wav	2.0	1	1.4469999999999998
170.74599999999995	3.523	P_C	1.0	1.0	0.675	1.0	0.377	Phon/Phon_run-02/ContS18.wav	1.0	1	0.675
174.27900000000002	3.429	P_O	1.0	n/a	n/a	1.0	1.589	Phon/Phon_run-02/PC006.wav	1.0	1	1.339
177.713	4.18	P_R	1.0	n/a	n/a	1.0	1.202	Phon/Phon_run-02/stereo_PR32.wav	1.0	1	0.952
181.896	4.104	P_R	1.0	n/a	n/a	1.0	1.186	Phon/Phon_run-02/stereo_PR24.wav	1.0	1	0.9359999999999999
