onset	duration	trial_type	correct	window1_response	window1_RT	window2_response	window2_RT	stim_file	calculated_response	calculated_accuracy	calculated_RT
1.0918	4.2	S_U	2.0	n/a	n/a	1.0	1.5819999999999999	Sem/Sem_run-01/stereo_1SU41A0.wav	1.0	0	1.3319999999999999
5.2953	3.596	S_C	1.0	n/a	n/a	1.0	0.8109999999999999	Sem/Sem_run-01/ContS29.wav	1.0	1	1.561
8.898	3.425	S_U	2.0	n/a	n/a	2.0	1.635	Sem/Sem_run-01/stereo_2SU87A0.wav	2.0	1	1.385
12.3338	3.933	S_H	1.0	n/a	n/a	1.0	1.3419999999999999	Sem/Sem_run-01/stereo_1SH13A0.wav	1.0	1	1.092
16.2699	4.323	S_H	1.0	n/a	n/a	1.0	1.452	Sem/Sem_run-01/stereo_1SH05A0.wav	1.0	1	1.202
20.6064	4.073	S_C	1.0	n/a	n/a	1.0	1.083	Sem/Sem_run-01/ContS31.wav	1.0	1	1.833
24.6927	3.869	S_L	1.0	n/a	n/a	1.0	2.489	Sem/Sem_run-01/stereo_2SL63A0.wav	1.0	1	2.239
28.5634	3.75	S_L	1.0	n/a	n/a	1.0	1.4469999999999998	Sem/Sem_run-01/stereo_1SL29A0.wav	1.0	1	1.1969999999999998
32.3161	4.3660000000000005	S_U	2.0	n/a	n/a	1.0	1.6969999999999998	Sem/Sem_run-01/stereo_2SU78A0.wav	1.0	0	1.4469999999999998
36.6859	3.3	S_L	1.0	n/a	n/a	1.0	1.238	Sem/Sem_run-01/stereo_1SL17A0.wav	1.0	1	0.988
39.9885	3.884	S_C	1.0	n/a	n/a	1.0	0.843	Sem/Sem_run-01/ContS05.wav	1.0	1	1.5930000000000002
43.8755	4.371	S_H	1.0	n/a	n/a	1.0	1.301	Sem/Sem_run-01/stereo_2SH58A0.wav	1.0	1	1.051
48.2606	4.329	S_L	1.0	n/a	n/a	1.0	1.045	Sem/Sem_run-01/stereo_2SL72A0.wav	1.0	1	0.7949999999999999
52.5971	3.94	S_H	1.0	n/a	n/a	1.0	1.357	Sem/Sem_run-01/stereo_2SH57A0.wav	1.0	1	1.107
56.55	4.2	S_U	2.0	n/a	n/a	1.0	1.226	Sem/Sem_run-01/stereo_2SU83A0.wav	1.0	0	0.976
60.753	3.474	S_C	1.0	n/a	n/a	1.0	1.013	Sem/Sem_run-01/ContS11.wav	1.0	1	1.763
64.2389	4.271	S_L	1.0	n/a	n/a	1.0	1.531	Sem/Sem_run-01/stereo_1SL26A0.wav	1.0	1	1.281
68.5248	3.91	S_L	1.0	n/a	n/a	1.0	1.08	Sem/Sem_run-01/stereo_1SL25A0.wav	1.0	1	0.8300000000000001
72.4443	4.479	S_C	1.0	n/a	n/a	1.0	0.866	Sem/Sem_run-01/ContS25.wav	1.0	1	1.616
76.9309	3.378	S_U	2.0	n/a	n/a	1.0	1.26	Sem/Sem_run-01/stereo_2SU81A0.wav	1.0	0	1.01
80.3167	3.42	S_L	1.0	n/a	n/a	1.0	1.538	Sem/Sem_run-01/stereo_1SL27A0.wav	1.0	1	1.288
83.7479	4.3439999999999985	S_L	1.0	n/a	n/a	1.0	1.097	Sem/Sem_run-01/stereo_1SL30A0.wav	1.0	1	0.847
88.1008	3.909	S_L	1.0	n/a	n/a	1.0	1.012	Sem/Sem_run-01/stereo_2SL71A0.wav	1.0	1	0.762
92.0205	3.867	S_H	1.0	n/a	n/a	1.0	1.22	Sem/Sem_run-01/stereo_1SH04A0.wav	1.0	1	0.97
95.8902	3.828	S_U	2.0	n/a	n/a	1.0	1.5490000000000002	Sem/Sem_run-01/stereo_1SU37A0.wav	1.0	0	1.2990000000000002
99.7264	4.565	S_C	1.0	n/a	n/a	1.0	0.872	Sem/Sem_run-01/ContS35.wav	1.0	1	1.6219999999999999
104.2964	3.3	S_U	2.0	n/a	n/a	2.0	1.209	Sem/Sem_run-01/stereo_1SU35A0.wav	2.0	1	0.9590000000000001
107.5986	3.477	S_L	1.0	n/a	n/a	2.0	1.629	Sem/Sem_run-01/stereo_2SL65A0.wav	2.0	0	1.379
111.0845	3.83	S_H	1.0	n/a	n/a	2.0	1.23	Sem/Sem_run-01/stereo_1SH07A0.wav	2.0	0	0.98
114.9207	4.3439999999999985	S_C	1.0	n/a	n/a	1.0	1.567	Sem/Sem_run-01/ContS07.wav	1.0	1	2.317
119.2738	3.5	S_H	1.0	n/a	n/a	1.0	1.07	Sem/Sem_run-01/stereo_1SH03A0.wav	1.0	1	0.8200000000000001
122.7765	3.919	S_U	2.0	n/a	n/a	2.0	1.7480000000000002	Sem/Sem_run-01/stereo_1SU45A0.wav	2.0	1	1.4980000000000002
126.697	3.5	S_H	1.0	n/a	n/a	1.0	2.072	Sem/Sem_run-01/stereo_1SH06A0.wav	1.0	1	1.822
130.1996	3.392	S_L	1.0	n/a	n/a	1.0	2.218	Sem/Sem_run-01/stereo_2SL62A0.wav	1.0	1	1.968
133.6021	3.54	S_C	1.0	n/a	n/a	2.0	1.8090000000000002	Sem/Sem_run-01/ContS19.wav	2.0	0	2.559
137.1547	4.4	S_H	1.0	n/a	n/a	2.0	1.84	Sem/Sem_run-01/stereo_1SH15A0.wav	2.0	0	1.59
141.5578	3.342	S_H	1.0	n/a	n/a	1.0	1.4480000000000002	Sem/Sem_run-01/stereo_1SH11A0.wav	1.0	1	1.1980000000000002
144.9103	3.385	S_U	2.0	n/a	n/a	1.0	0.9009999999999999	Sem/Sem_run-01/stereo_1SU44A0.wav	1.0	0	0.6509999999999999
148.2972	3.4160000000000004	S_H	1.0	n/a	n/a	1.0	1.105	Sem/Sem_run-01/stereo_2SH56A0.wav	1.0	1	0.855
151.7164	3.849	S_U	2.0	n/a	n/a	1.0	0.488	Sem/Sem_run-01/stereo_2SU82A0.wav	1.0	0	0.238
155.5691	3.934	S_C	1.0	n/a	n/a	1.0	1.248	Sem/Sem_run-01/ContS13.wav	1.0	1	1.998
159.506	4.309	S_L	1.0	n/a	n/a	1.0	0.609	Sem/Sem_run-01/stereo_2SL64A0.wav	1.0	1	0.359
163.8257	4.413	S_C	1.0	n/a	n/a	1.0	0.975	Sem/Sem_run-01/ContS17.wav	1.0	1	1.725
168.2456	4.2	S_U	2.0	n/a	n/a	2.0	1.431	Sem/Sem_run-01/stereo_2SU90A0.wav	2.0	1	1.181
172.4489	3.846	S_U	2.0	n/a	n/a	1.0	0.593	Sem/Sem_run-01/stereo_2SU88A0.wav	1.0	0	0.34299999999999997
176.3017	3.3939999999999997	S_C	1.0	n/a	n/a	1.0	0.86	Sem/Sem_run-01/ContS01.wav	1.0	1	1.61
179.7041	4.013	S_C	1.0	n/a	n/a	1.0	1.262	Sem/Sem_run-01/ContS23.wav	1.0	1	2.012
183.7237	4.227	S_H	1.0	n/a	n/a	1.0	0.665	Sem/Sem_run-01/stereo_1SH08A0.wav	1.0	1	0.415
