onset	duration	trial_type	correct	window1_response	window1_RT	window2_response	window2_RT	stim_file	calculated_response	calculated_accuracy	calculated_RT
1.085	7.034	SP_W	1.0	n/a	n/a	1.0	3.801	Plaus/Plaus_run-01/stereo_PW85.wav	1.0	1	1.6540000000000001
8.123	5.641	SP_I	2.0	n/a	n/a	2.0	2.323	Plaus/Plaus_run-01/stereo_PI11.wav	2.0	1	1.4029999999999998
13.778	6.77	SP_C	1.0	1.0	0.732	n/a	n/a	Plaus/Plaus_run-01/CoM08b.wav	1.0	1	0.732
20.55	7.327000000000001	SP_W	1.0	n/a	n/a	1.0	3.365	Plaus/Plaus_run-01/stereo_PW72.wav	1.0	1	1.3850000000000002
27.889	6.145	SP_C	1.0	1.0	0.647	n/a	n/a	Plaus/Plaus_run-01/CoM05d.wav	1.0	1	0.647
34.043	5.181	SP_I	2.0	n/a	n/a	2.0	2.826	Plaus/Plaus_run-01/stereo_PI65.wav	2.0	1	1.8840000000000001
39.231	5.092	SP_S	1.0	n/a	n/a	1.0	2.233	Plaus/Plaus_run-01/stereo_PC13.wav	1.0	1	1.17
44.335	7.355	SP_C	1.0	n/a	n/a	1.0	0.057999999999999996	Plaus/Plaus_run-01/CoM06l.wav	1.0	1	0.8079999999999999
51.69	7.47	SP_I	2.0	n/a	n/a	2.0	4.654	Plaus/Plaus_run-01/stereo_PI90.wav	2.0	1	2.483
59.163	7.399	SP_S	1.0	n/a	n/a	1.0	3.562	Plaus/Plaus_run-01/stereo_PC35.wav	1.0	1	1.295
66.569	5.685	SP_S	1.0	n/a	n/a	1.0	2.524	Plaus/Plaus_run-01/stereo_PC47.wav	1.0	1	1.515
72.256	5.669	SP_W	1.0	n/a	n/a	1.0	2.677	Plaus/Plaus_run-01/stereo_PW19.wav	1.0	1	1.671
77.92699999999998	7.9	SP_C	1.0	n/a	n/a	1.0	0.006	Plaus/Plaus_run-01/CoM03l.wav	1.0	1	0.7559999999999999
85.833	5.145	SP_I	2.0	n/a	n/a	2.0	2.8289999999999997	Plaus/Plaus_run-01/stereo_PI09.wav	2.0	1	1.8210000000000004
90.987	6.9170000000000025	SP_W	1.0	n/a	n/a	1.0	3.68	Plaus/Plaus_run-01/stereo_PW30.wav	1.0	1	1.56
97.909	5.738	SP_S	1.0	n/a	n/a	1.0	2.806	Plaus/Plaus_run-01/stereo_PC14.wav	1.0	1	1.635
103.647	6.276	SP_W	1.0	n/a	n/a	1.0	2.665	Plaus/Plaus_run-01/stereo_PW50.wav	1.0	1	1.8430000000000002
109.935	5.49	SP_C	1.0	n/a	n/a	1.0	0.151	Plaus/Plaus_run-01/CoM03d.wav	1.0	1	0.9009999999999999
115.44	5.7	SP_I	2.0	n/a	n/a	2.0	2.898	Plaus/Plaus_run-01/stereo_PI67.wav	2.0	1	2.0069999999999997
121.144	7.237	SP_S	1.0	n/a	n/a	1.0	3.96	Plaus/Plaus_run-01/stereo_PC68.wav	1.0	1	1.994
128.38299999999998	6.49	SP_C	1.0	1.0	0.745	n/a	n/a	Plaus/Plaus_run-01/CoM03b.wav	1.0	1	0.745
134.888	6.25	SP_W	1.0	n/a	n/a	1.0	2.968	Plaus/Plaus_run-01/stereo_PW61.wav	1.0	1	1.9880000000000002
141.143	6.952999999999999	SP_I	2.0	n/a	n/a	2.0	3.838	Plaus/Plaus_run-01/stereo_PI32.wav	2.0	1	1.673
148.09799999999996	7.085	SP_C	1.0	1.0	0.589	n/a	n/a	Plaus/Plaus_run-01/CoM02e.wav	1.0	1	0.589
155.187	6.3610000000000015	SP_S	1.0	n/a	n/a	1.0	4.256	Plaus/Plaus_run-01/stereo_PC24.wav	1.0	1	1.998
161.559	5.1110000000000015	SP_W	1.0	n/a	n/a	1.0	2.5140000000000002	Plaus/Plaus_run-01/stereo_PW53.wav	1.0	1	1.5
166.679	6.2860000000000005	SP_I	2.0	n/a	n/a	2.0	4.1	Plaus/Plaus_run-01/stereo_PI42.wav	2.0	1	1.9040000000000001
172.967	6.577000000000001	SP_S	1.0	n/a	n/a	1.0	2.367	Plaus/Plaus_run-01/stereo_PC57.wav	1.0	1	1.172
179.55599999999995	5.273	SP_W	1.0	n/a	n/a	1.0	2.707	Plaus/Plaus_run-01/stereo_PW18.wav	1.0	1	1.5399999999999998
184.843	5.77	SP_C	1.0	1.0	0.46799999999999997	n/a	n/a	Plaus/Plaus_run-01/CoM09b.wav	1.0	1	0.46799999999999997
190.614	6.731	SP_S	1.0	n/a	n/a	1.0	3.383	Plaus/Plaus_run-01/stereo_PC26.wav	1.0	1	1.2830000000000001
197.353	7.212999999999999	SP_I	2.0	n/a	n/a	2.0	3.909	Plaus/Plaus_run-01/stereo_PI33.wav	2.0	1	1.926
204.575	5.181	SP_S	1.0	n/a	n/a	1.0	3.17	Plaus/Plaus_run-01/stereo_PC01.wav	1.0	1	2.229
209.763	6.238	SP_S	1.0	n/a	n/a	1.0	3.553	Plaus/Plaus_run-01/stereo_PC36.wav	1.0	1	1.5069999999999997
216.001	7.73	SP_C	1.0	n/a	n/a	1.0	0.493	Plaus/Plaus_run-01/CoM10e.wav	1.0	1	1.243
223.74	6.843	SP_I	2.0	n/a	n/a	2.0	4.123	Plaus/Plaus_run-01/stereo_PI45.wav	2.0	1	1.9960000000000004
230.595	6.101	SP_W	1.0	n/a	n/a	1.0	3.4739999999999998	Plaus/Plaus_run-01/stereo_PW28.wav	1.0	1	1.5419999999999998
236.7	7.419	SP_W	1.0	n/a	n/a	1.0	3.2960000000000003	Plaus/Plaus_run-01/stereo_PW86.wav	1.0	1	1.2600000000000011
244.123	6.54	SP_C	1.0	1.0	0.727	1.0	2.758	Plaus/Plaus_run-01/CoM05e.wav	1.0	1	0.727
250.678	6.247000000000001	SP_I	2.0	n/a	n/a	2.0	2.7760000000000002	Plaus/Plaus_run-01/stereo_PI12.wav	2.0	1	1.905
