onset	duration	trial_type	correct	window1_response	window1_RT	window2_response	window2_RT	stim_file	calculated_response	calculated_accuracy	calculated_RT
1.0925	3.4539999999999997	P_R	1.0	n/a	n/a	1.0	1.758	Phon/Phon_run-01/stereo_PR01.wav	1.0	1	1.508
4.5615	3.767	P_O	1.0	n/a	n/a	2.0	1.072	Phon/Phon_run-01/PC018.wav	2.0	0	0.8220000000000001
8.3317	3.391	P_O	1.0	n/a	n/a	1.0	1.6119999999999999	Phon/Phon_run-01/PC009.wav	1.0	1	1.362
11.7341	4.374	P_C	1.0	n/a	n/a	1.0	0.005	Phon/Phon_run-01/ContS11.wav	1.0	1	0.755
16.1207	3.345	P_U	2.0	n/a	n/a	2.0	1.409	Phon/Phon_run-01/PM002.wav	2.0	1	1.159
19.473	4.4510000000000005	P_C	1.0	n/a	n/a	1.0	0.009000000000000001	Phon/Phon_run-01/ContS21.wav	1.0	1	0.759
23.9275	4.382	P_O	1.0	n/a	n/a	2.0	1.615	Phon/Phon_run-01/PC005.wav	2.0	0	1.365
28.314	3.3	P_U	2.0	n/a	n/a	2.0	1.3130000000000002	Phon/Phon_run-01/stereo_PU26.wav	2.0	1	1.0630000000000002
31.6165	4.324	P_C	1.0	n/a	n/a	1.0	0.207	Phon/Phon_run-01/ContS03.wav	1.0	1	0.957
35.9529	4.378	P_R	1.0	n/a	n/a	1.0	1.855	Phon/Phon_run-01/stereo_PR29.wav	1.0	1	1.605
40.3393	3.4810000000000003	P_U	2.0	n/a	n/a	2.0	1.78	Phon/Phon_run-01/PM020.wav	2.0	1	1.53
43.8252	4.393	P_O	1.0	n/a	n/a	1.0	1.67	Phon/Phon_run-01/PC027.wav	1.0	1	1.42
48.2284	4.4	P_R	1.0	n/a	n/a	1.0	3.102	Phon/Phon_run-01/stereo_PR11.wav	1.0	1	2.852
52.6316	3.884	P_C	1.0	n/a	n/a	1.0	0.2	Phon/Phon_run-01/ContS05.wav	1.0	1	0.95
56.5186	3.891	P_U	2.0	n/a	n/a	2.0	1.995	Phon/Phon_run-01/stereo_PU28.wav	2.0	1	1.745
60.4213	4.4	P_O	1.0	n/a	n/a	1.0	1.94	Phon/Phon_run-01/PC013.wav	1.0	1	1.69
64.8247	3.513	P_C	1.0	n/a	n/a	1.0	0.13	Phon/Phon_run-01/ContS17.wav	1.0	1	0.88
68.3439	4.4	P_U	2.0	n/a	n/a	1.0	1.81	Phon/Phon_run-01/PM027.wav	1.0	0	1.56
72.7471	4.4	P_O	1.0	n/a	n/a	2.0	1.8530000000000002	Phon/Phon_run-01/PC021.wav	2.0	0	1.603
77.1504	4.496	P_C	1.0	n/a	n/a	1.0	1.121	Phon/Phon_run-01/ContS29.wav	1.0	1	1.871
81.6536	3.3680000000000003	P_R	1.0	n/a	n/a	2.0	1.508	Phon/Phon_run-01/stereo_PR25.wav	2.0	0	1.258
85.0239	3.95	P_O	1.0	n/a	n/a	1.0	1.587	Phon/Phon_run-01/PC012.wav	1.0	1	1.337
88.9768	3.95	P_U	2.0	n/a	n/a	1.0	2.353	Phon/Phon_run-01/PM003.wav	1.0	0	2.103
92.9297	3.939	P_O	1.0	n/a	n/a	2.0	1.093	Phon/Phon_run-01/PC004.wav	2.0	0	0.843
96.8826	3.59	P_C	1.0	n/a	n/a	1.0	0.08	Phon/Phon_run-01/ContS27.wav	1.0	1	0.83
100.4851	4.296	P_U	2.0	n/a	n/a	2.0	1.3559999999999999	Phon/Phon_run-01/stereo_PU21.wav	2.0	1	1.106
104.7882	3.862	P_R	1.0	n/a	n/a	1.0	2.079	Phon/Phon_run-01/stereo_PR26.wav	1.0	1	1.8290000000000002
108.6576	3.95	P_O	1.0	n/a	n/a	1.0	1.7790000000000001	Phon/Phon_run-01/PC026.wav	1.0	1	1.529
112.6107	3.5	P_O	1.0	n/a	n/a	1.0	1.5859999999999999	Phon/Phon_run-01/PC025.wav	1.0	1	1.336
116.1133	4.013	P_C	1.0	1.0	0.706	n/a	n/a	Phon/Phon_run-01/ContS23.wav	1.0	1	0.706
120.1329	3.792	P_R	1.0	n/a	n/a	1.0	1.345	Phon/Phon_run-01/stereo_PR18.wav	1.0	1	1.095
123.9359	3.346	P_U	2.0	n/a	n/a	1.0	1.864	Phon/Phon_run-01/stereo_PU19.wav	1.0	0	1.614
127.2885	3.891	P_R	1.0	n/a	n/a	1.0	1.4380000000000002	Phon/Phon_run-01/stereo_PR03.wav	1.0	1	1.1880000000000002
131.1913	3.355	P_O	1.0	n/a	n/a	2.0	1.439	Phon/Phon_run-01/PC003.wav	2.0	0	1.189
134.5604	3.951	P_C	1.0	n/a	n/a	1.0	0.593	Phon/Phon_run-01/ContS15.wav	1.0	1	1.343
138.5144	3.74	P_U	2.0	n/a	n/a	1.0	1.287	Phon/Phon_run-01/stereo_PU16.wav	1.0	0	1.037
142.2671	3.95	P_R	1.0	n/a	n/a	2.0	0.838	Phon/Phon_run-01/stereo_PR10.wav	2.0	0	0.588
146.22	3.464	P_C	1.0	n/a	n/a	1.0	2.25	Phon/Phon_run-01/ContS09.wav	1.0	1	3.0
149.6892	4.275	P_R	1.0	n/a	n/a	1.0	1.239	Phon/Phon_run-01/stereo_PR04.wav	1.0	1	0.9890000000000001
153.9756	3.95	P_U	2.0	n/a	n/a	2.0	1.396	Phon/Phon_run-01/PM023.wav	2.0	1	1.146
157.9284	4.4	P_U	2.0	n/a	n/a	1.0	2.0069999999999997	Phon/Phon_run-01/PM001.wav	1.0	0	1.7570000000000001
162.3319	3.665	P_C	1.0	n/a	n/a	1.0	0.6729999999999999	Phon/Phon_run-01/ContS35.wav	1.0	1	1.423
166.0011	3.463	P_O	1.0	n/a	n/a	2.0	2.0269999999999997	Phon/Phon_run-01/PC017.wav	2.0	0	1.7770000000000001
169.4703	4.332	P_R	1.0	n/a	n/a	1.0	1.325	Phon/Phon_run-01/stereo_PR19.wav	1.0	1	1.075
173.8067	4.083	P_C	1.0	n/a	n/a	2.0	0.6409999999999999	Phon/Phon_run-01/ContS33.wav	2.0	0	1.391
177.893	3.5	P_R	1.0	n/a	n/a	1.0	2.056	Phon/Phon_run-01/stereo_PR17.wav	1.0	1	1.806
181.3956	4.2669999999999995	P_U	2.0	n/a	n/a	2.0	1.382	Phon/Phon_run-01/PM009.wav	2.0	1	1.132
185.6658	3.4389999999999996	P_R	1.0	n/a	n/a	1.0	1.85	Phon/Phon_run-01/stereo_PR09.wav	1.0	1	1.6
