onset	duration	trial_type	correct	window1_response	window1_RT	window2_response	window2_RT	stim_file	calculated_response	calculated_accuracy	calculated_RT
1.1340000000000001	4.2	S_U	2.0	n/a	n/a	2.0	1.9180000000000001	Sem/Sem_run-01/stereo_1SU41A0.wav	2.0	1	1.668
5.35	3.596	S_C	1.0	n/a	n/a	1.0	0.247	Sem/Sem_run-01/ContS29.wav	1.0	1	0.997
8.95	3.425	S_U	2.0	n/a	n/a	2.0	1.367	Sem/Sem_run-01/stereo_2SU87A0.wav	2.0	1	1.117
12.383	3.933	S_H	1.0	n/a	n/a	1.0	1.321	Sem/Sem_run-01/stereo_1SH13A0.wav	1.0	1	1.071
16.316	4.323	S_H	1.0	n/a	n/a	1.0	1.5390000000000001	Sem/Sem_run-01/stereo_1SH05A0.wav	1.0	1	1.289
20.65	4.073	S_C	1.0	n/a	n/a	1.0	0.324	Sem/Sem_run-01/ContS31.wav	1.0	1	1.074
24.733	3.869	S_L	1.0	n/a	n/a	1.0	1.3559999999999999	Sem/Sem_run-01/stereo_2SL63A0.wav	1.0	1	1.106
28.616	3.75	S_L	1.0	n/a	n/a	1.0	1.5659999999999998	Sem/Sem_run-01/stereo_1SL29A0.wav	1.0	1	1.3159999999999998
32.366	4.3660000000000005	S_U	2.0	n/a	n/a	2.0	2.263	Sem/Sem_run-01/stereo_2SU78A0.wav	2.0	1	2.013
36.733000000000004	3.3	S_L	1.0	n/a	n/a	1.0	1.6440000000000001	Sem/Sem_run-01/stereo_1SL17A0.wav	1.0	1	1.394
40.032	3.884	S_C	1.0	1.0	0.7020000000000001	1.0	0.456	Sem/Sem_run-01/ContS05.wav	1.0	1	0.7020000000000001
43.916000000000004	4.371	S_H	1.0	n/a	n/a	1.0	1.64	Sem/Sem_run-01/stereo_2SH58A0.wav	1.0	1	1.39
48.299	4.329	S_L	1.0	n/a	n/a	1.0	1.395	Sem/Sem_run-01/stereo_2SL72A0.wav	1.0	1	1.145
52.632	3.94	S_H	1.0	n/a	n/a	n/a	n/a	Sem/Sem_run-01/stereo_2SH57A0.wav	n/a	0	n/a
56.582	4.2	S_U	2.0	n/a	n/a	2.0	1.534	Sem/Sem_run-01/stereo_2SU83A0.wav	2.0	1	1.284
60.782	3.474	S_C	1.0	1.0	0.748	1.0	0.523	Sem/Sem_run-01/ContS11.wav	1.0	1	0.748
64.265	4.271	S_L	1.0	n/a	n/a	1.0	2.044	Sem/Sem_run-01/stereo_1SL26A0.wav	1.0	1	1.794
68.54899999999999	3.91	S_L	1.0	n/a	n/a	2.0	1.736	Sem/Sem_run-01/stereo_1SL25A0.wav	2.0	0	1.486
72.465	4.479	S_C	1.0	n/a	n/a	1.0	0.018000000000000002	Sem/Sem_run-01/ContS25.wav	1.0	1	0.768
76.94800000000002	3.378	S_U	2.0	n/a	n/a	2.0	1.8780000000000001	Sem/Sem_run-01/stereo_2SU81A0.wav	2.0	1	1.628
80.332	3.42	S_L	1.0	n/a	n/a	1.0	1.9380000000000002	Sem/Sem_run-01/stereo_1SL27A0.wav	1.0	1	1.688
83.765	4.3439999999999985	S_L	1.0	n/a	n/a	2.0	2.347	Sem/Sem_run-01/stereo_1SL30A0.wav	2.0	0	2.097
88.115	3.909	S_L	1.0	n/a	n/a	2.0	2.592	Sem/Sem_run-01/stereo_2SL71A0.wav	2.0	0	2.342
92.031	3.867	S_H	1.0	n/a	n/a	1.0	2.2430000000000003	Sem/Sem_run-01/stereo_1SH04A0.wav	1.0	1	1.9930000000000003
95.898	3.828	S_U	2.0	n/a	n/a	2.0	1.419	Sem/Sem_run-01/stereo_1SU37A0.wav	2.0	1	1.169
99.73100000000001	4.565	S_C	1.0	n/a	n/a	1.0	0.111	Sem/Sem_run-01/ContS35.wav	1.0	1	0.861
104.29799999999999	3.3	S_U	2.0	n/a	n/a	2.0	1.916	Sem/Sem_run-01/stereo_1SU35A0.wav	2.0	1	1.666
107.598	3.477	S_L	1.0	n/a	n/a	2.0	1.38	Sem/Sem_run-01/stereo_2SL65A0.wav	2.0	0	1.13
111.081	3.83	S_H	1.0	n/a	n/a	1.0	1.26	Sem/Sem_run-01/stereo_1SH07A0.wav	1.0	1	1.01
114.914	4.3439999999999985	S_C	1.0	n/a	n/a	1.0	0.302	Sem/Sem_run-01/ContS07.wav	1.0	1	1.052
119.264	3.5	S_H	1.0	n/a	n/a	1.0	1.499	Sem/Sem_run-01/stereo_1SH03A0.wav	1.0	1	1.249
122.764	3.919	S_U	2.0	n/a	n/a	1.0	2.101	Sem/Sem_run-01/stereo_1SU45A0.wav	1.0	0	1.851
126.697	3.5	S_H	1.0	n/a	n/a	1.0	2.063	Sem/Sem_run-01/stereo_1SH06A0.wav	1.0	1	1.8130000000000002
130.197	3.392	S_L	1.0	n/a	n/a	1.0	2.068	Sem/Sem_run-01/stereo_2SL62A0.wav	1.0	1	1.818
133.597	3.54	S_C	1.0	n/a	n/a	1.0	0.282	Sem/Sem_run-01/ContS19.wav	1.0	1	1.032
137.14700000000002	4.4	S_H	1.0	n/a	n/a	1.0	1.359	Sem/Sem_run-01/stereo_1SH15A0.wav	1.0	1	1.109
141.547	3.342	S_H	1.0	n/a	n/a	1.0	1.157	Sem/Sem_run-01/stereo_1SH11A0.wav	1.0	1	0.907
144.89700000000005	3.385	S_U	2.0	n/a	n/a	2.0	1.287	Sem/Sem_run-01/stereo_1SU44A0.wav	2.0	1	1.037
148.297	3.4160000000000004	S_H	1.0	n/a	n/a	1.0	1.251	Sem/Sem_run-01/stereo_2SH56A0.wav	1.0	1	1.001
151.714	3.849	S_U	2.0	n/a	n/a	1.0	1.49	Sem/Sem_run-01/stereo_2SU82A0.wav	1.0	0	1.24
155.563	3.934	S_C	1.0	n/a	n/a	1.0	0.16399999999999998	Sem/Sem_run-01/ContS13.wav	1.0	1	0.9139999999999999
159.497	4.309	S_L	1.0	n/a	n/a	1.0	1.298	Sem/Sem_run-01/stereo_2SL64A0.wav	1.0	1	1.048
163.813	4.413	S_C	1.0	1.0	0.713	1.0	0.43700000000000006	Sem/Sem_run-01/ContS17.wav	1.0	1	0.713
168.23	4.2	S_U	2.0	n/a	n/a	2.0	1.113	Sem/Sem_run-01/stereo_2SU90A0.wav	2.0	1	0.863
172.43	3.846	S_U	2.0	n/a	n/a	1.0	1.237	Sem/Sem_run-01/stereo_2SU88A0.wav	1.0	0	0.9870000000000001
176.28	3.3939999999999997	S_C	1.0	n/a	n/a	1.0	0.129	Sem/Sem_run-01/ContS01.wav	1.0	1	0.879
179.68	4.013	S_C	1.0	1.0	0.737	1.0	0.409	Sem/Sem_run-01/ContS23.wav	1.0	1	0.737
183.696	4.227	S_H	1.0	n/a	n/a	1.0	1.328	Sem/Sem_run-01/stereo_1SH08A0.wav	1.0	1	1.078
