onset	duration	trial_type	correct	window1_response	window1_RT	window2_response	window2_RT	stim_file	calculated_response	calculated_accuracy	calculated_RT
1.0924	3.5	P_R	1.0	n/a	n/a	1.0	1.9069999999999998	Phon/Phon_run-02/stereo_PR20.wav	1.0	1	1.657
4.595	4.235	P_O	1.0	n/a	n/a	1.0	1.7790000000000001	Phon/Phon_run-02/PC034.wav	1.0	1	1.529
8.8325	3.375	P_R	1.0	n/a	n/a	1.0	1.173	Phon/Phon_run-02/stereo_PR13.wav	1.0	1	0.923
12.2183	3.474	P_C	1.0	n/a	n/a	1.0	0.769	Phon/Phon_run-02/ContS12.wav	1.0	1	1.5190000000000001
15.7041	3.875	P_U	2.0	n/a	n/a	2.0	1.625	Phon/Phon_run-02/PM025.wav	2.0	1	1.375
19.5903	3.726	P_R	1.0	n/a	n/a	1.0	1.301	Phon/Phon_run-02/stereo_PR22.wav	1.0	1	1.051
23.3263	3.451	P_O	1.0	n/a	n/a	2.0	1.609	Phon/Phon_run-02/PC014.wav	2.0	0	1.359
26.7799	3.779	P_C	1.0	n/a	n/a	1.0	0.265	Phon/Phon_run-02/ContS02.wav	1.0	1	1.0150000000000001
30.566	3.821	P_U	2.0	n/a	n/a	2.0	1.527	Phon/Phon_run-02/stereo_PU18.wav	2.0	1	1.277
34.402	3.49	P_U	2.0	n/a	n/a	n/a	n/a	Phon/Phon_run-02/stereo_PU12.wav	n/a	0	n/a
37.9046	4.38	P_C	1.0	n/a	n/a	1.0	0.428	Phon/Phon_run-02/ContS32.wav	1.0	1	1.178
42.291000000000004	4.0969999999999995	P_R	1.0	n/a	n/a	1.0	2.353	Phon/Phon_run-02/stereo_PR16.wav	1.0	1	2.103
46.394	3.5	P_O	1.0	n/a	n/a	1.0	2.309	Phon/Phon_run-02/PC022.wav	1.0	1	2.059
49.8966	4.0760000000000005	P_R	1.0	n/a	n/a	1.0	1.145	Phon/Phon_run-02/stereo_PR08.wav	1.0	1	0.895
53.983000000000004	3.5	P_O	1.0	n/a	n/a	2.0	1.609	Phon/Phon_run-02/PC028.wav	2.0	0	1.359
57.4856	3.5	P_U	2.0	n/a	n/a	2.0	1.9469999999999998	Phon/Phon_run-02/stereo_PU27.wav	2.0	1	1.697
60.9881	3.819	P_C	1.0	n/a	n/a	n/a	n/a	Phon/Phon_run-02/ContS06.wav	n/a	0	n/a
64.8086	4.25	P_O	1.0	n/a	n/a	n/a	n/a	Phon/Phon_run-02/PC031.wav	n/a	0	n/a
69.062	3.662	P_C	1.0	n/a	n/a	n/a	n/a	Phon/Phon_run-02/ContS36.wav	n/a	0	n/a
72.7312	3.823	P_O	1.0	n/a	n/a	1.0	1.9580000000000002	Phon/Phon_run-02/PC023.wav	1.0	1	1.708
76.5674	4.323	P_C	1.0	n/a	n/a	1.0	0.987	Phon/Phon_run-02/ContS24.wav	1.0	1	1.737
80.9038	3.865	P_U	2.0	n/a	n/a	2.0	1.7009999999999998	Phon/Phon_run-02/PM004.wav	2.0	1	1.4509999999999998
84.7733	3.875	P_O	1.0	n/a	n/a	2.0	1.81	Phon/Phon_run-02/PC007.wav	2.0	0	1.56
88.6594	4.25	P_U	2.0	n/a	n/a	2.0	1.476	Phon/Phon_run-02/PM011.wav	2.0	1	1.226
92.9126	4.362	P_C	1.0	n/a	n/a	1.0	0.677	Phon/Phon_run-02/ContS30.wav	1.0	1	1.427
97.2825	3.875	P_O	1.0	n/a	n/a	1.0	2.571	Phon/Phon_run-02/PC030.wav	1.0	1	2.321
101.1687	3.3360000000000003	P_R	1.0	n/a	n/a	1.0	1.202	Phon/Phon_run-02/stereo_PR05.wav	1.0	1	0.952
104.5077	4.113	P_U	2.0	n/a	n/a	2.0	1.208	Phon/Phon_run-02/stereo_PU01.wav	2.0	1	0.958
108.6273	4.1739999999999995	P_U	2.0	n/a	n/a	2.0	2.231	Phon/Phon_run-02/PM029.wav	2.0	1	1.9809999999999999
112.8137	3.4539999999999997	P_C	1.0	n/a	n/a	1.0	0.354	Phon/Phon_run-02/ContS08.wav	1.0	1	1.104
116.2828	3.446	P_R	1.0	n/a	n/a	n/a	n/a	Phon/Phon_run-02/stereo_PR30.wav	n/a	0	n/a
119.7352	3.85	P_R	1.0	n/a	n/a	1.0	1.59	Phon/Phon_run-02/stereo_PR07.wav	1.0	1	1.34
123.588	3.438	P_U	2.0	n/a	n/a	2.0	1.297	Phon/Phon_run-02/stereo_PU02.wav	2.0	1	1.047
127.0406	3.915	P_C	1.0	n/a	n/a	1.0	0.363	Phon/Phon_run-02/ContS20.wav	1.0	1	1.113
130.9601	3.487	P_U	2.0	n/a	n/a	2.0	1.371	Phon/Phon_run-02/PM021.wav	2.0	1	1.121
134.46200000000002	3.965	P_C	1.0	n/a	n/a	1.0	2.2430000000000003	Phon/Phon_run-02/ContS26.wav	1.0	1	2.9930000000000003
138.4315	3.792	P_R	1.0	n/a	n/a	1.0	1.604	Phon/Phon_run-02/stereo_PR31.wav	1.0	1	1.354
142.2343	4.135	P_O	1.0	n/a	n/a	1.0	1.939	Phon/Phon_run-02/PC024.wav	1.0	1	1.689
146.3717	3.875	P_U	2.0	n/a	n/a	2.0	1.5759999999999998	Phon/Phon_run-02/PM010.wav	2.0	1	1.3259999999999998
150.2579	3.875	P_O	1.0	n/a	n/a	1.0	1.5590000000000002	Phon/Phon_run-02/PC015.wav	1.0	1	1.3090000000000002
154.144	4.245	P_C	1.0	n/a	n/a	1.0	0.318	Phon/Phon_run-02/ContS14.wav	1.0	1	1.068
158.3971	3.854	P_R	1.0	n/a	n/a	1.0	1.483	Phon/Phon_run-02/stereo_PR14.wav	1.0	1	1.233
162.2662	4.239	P_O	1.0	n/a	n/a	1.0	1.548	Phon/Phon_run-02/PC008.wav	1.0	1	1.298
166.5192	4.25	P_U	2.0	n/a	n/a	2.0	1.4709999999999999	Phon/Phon_run-02/stereo_PU11.wav	2.0	1	1.221
170.7726	3.523	P_C	1.0	n/a	n/a	1.0	0.718	Phon/Phon_run-02/ContS18.wav	1.0	1	1.468
174.3085	3.429	P_O	1.0	n/a	n/a	1.0	1.617	Phon/Phon_run-02/PC006.wav	1.0	1	1.367
177.7443	4.18	P_R	1.0	n/a	n/a	1.0	1.412	Phon/Phon_run-02/stereo_PR32.wav	1.0	1	1.162
181.9307	4.104	P_R	1.0	n/a	n/a	1.0	1.383	Phon/Phon_run-02/stereo_PR24.wav	1.0	1	1.133
