onset	duration	trial_type	correct	window1_response	window1_RT	window2_response	window2_RT	stim_file	calculated_response	calculated_accuracy	calculated_RT
1.0937	6.343	SP_S	1.0	n/a	n/a	1.0	4.0760000000000005	Plaus/Plaus_run-02/stereo_PC37.wav	1.0	1	1.915
7.4482	6.345	SP_W	1.0	n/a	n/a	2.0	3.912	Plaus/Plaus_run-02/stereo_PW74.wav	2.0	0	1.943
13.8029	6.095	SP_C	1.0	n/a	n/a	1.0	0.452	Plaus/Plaus_run-02/CoM10d.wav	1.0	1	1.202
19.9073	6.401	SP_I	2.0	n/a	n/a	2.0	2.9019999999999997	Plaus/Plaus_run-02/stereo_PI56.wav	2.0	1	2.035
26.313000000000002	6.407	SP_W	1.0	n/a	n/a	1.0	4.558	Plaus/Plaus_run-02/stereo_PW39.wav	1.0	1	2.5309999999999997
32.7344	6.8420000000000005	SP_I	2.0	n/a	n/a	2.0	4.619	Plaus/Plaus_run-02/stereo_PI44.wav	2.0	1	2.4219999999999997
39.5893	7.7	SP_C	1.0	n/a	n/a	1.0	1.239	Plaus/Plaus_run-02/CoM07e.wav	1.0	1	1.989
47.295	5.756	SP_S	1.0	n/a	n/a	1.0	4.055	Plaus/Plaus_run-02/stereo_PC03.wav	1.0	1	3.113
53.0655	7.372000000000001	SP_S	1.0	n/a	n/a	1.0	5.015	Plaus/Plaus_run-02/stereo_PC82.wav	1.0	1	2.9599999999999995
60.4386	6.095	SP_C	1.0	n/a	n/a	1.0	0.888	Plaus/Plaus_run-02/CoM04d.wav	1.0	1	1.638
66.5431	6.303	SP_I	2.0	n/a	n/a	n/a	n/a	Plaus/Plaus_run-02/stereo_PI23.wav	n/a	0	n/a
72.8488	5.655	SP_I	2.0	n/a	n/a	2.0	2.171	Plaus/Plaus_run-02/stereo_PI22.wav	2.0	1	1.2519999999999998
78.5141	6.85	SP_C	1.0	n/a	n/a	1.0	0.615	Plaus/Plaus_run-02/CoM08d.wav	1.0	1	1.365
85.3693	6.9179999999999975	SP_S	1.0	n/a	n/a	1.0	3.952	Plaus/Plaus_run-02/stereo_PC79.wav	1.0	1	1.7060000000000004
92.2921	5.233	SP_I	2.0	n/a	n/a	2.0	3.4189999999999996	Plaus/Plaus_run-02/stereo_PI21.wav	2.0	1	2.3790000000000004
97.5292	6.385	SP_S	1.0	n/a	n/a	2.0	3.7960000000000003	Plaus/Plaus_run-02/stereo_PC46.wav	2.0	0	2.8339999999999996
103.9184	6.282	SP_W	1.0	n/a	n/a	1.0	3.0780000000000003	Plaus/Plaus_run-02/stereo_PW64.wav	1.0	1	1.9720000000000004
110.2063	7.69	SP_C	1.0	n/a	n/a	2.0	1.1079999999999999	Plaus/Plaus_run-02/CoM04e.wav	2.0	0	1.858
117.9072	6.316	SP_I	2.0	n/a	n/a	2.0	4.287	Plaus/Plaus_run-02/stereo_PI34.wav	2.0	1	2.13
124.2283	5.47	SP_C	1.0	n/a	n/a	1.0	1.6340000000000001	Plaus/Plaus_run-02/CoM10b.wav	1.0	1	2.384
129.7001	5.636	SP_I	2.0	n/a	n/a	n/a	n/a	Plaus/Plaus_run-02/stereo_PI55.wav	n/a	0	n/a
135.3387	7.461	SP_W	1.0	n/a	n/a	1.0	4.479	Plaus/Plaus_run-02/stereo_PW83.wav	1.0	1	2.4750000000000005
142.8107	5.48	SP_C	1.0	n/a	n/a	1.0	0.373	Plaus/Plaus_run-02/CoM01b.wav	1.0	1	1.123
148.298	6.2120000000000015	SP_W	1.0	n/a	n/a	1.0	3.33	Plaus/Plaus_run-02/stereo_PW08.wav	1.0	1	2.4690000000000003
154.5192	4.694	SP_W	1.0	n/a	n/a	1.0	2.653	Plaus/Plaus_run-02/stereo_PW07.wav	1.0	1	1.778
159.2226	6.197	SP_I	2.0	n/a	n/a	2.0	4.213	Plaus/Plaus_run-02/stereo_PI43.wav	2.0	1	2.1530000000000005
165.4272	6.1979999999999995	SP_S	1.0	n/a	n/a	1.0	2.69	Plaus/Plaus_run-02/stereo_PC59.wav	1.0	1	1.689
171.6318	7.345	SP_C	1.0	n/a	n/a	1.0	1.214	Plaus/Plaus_run-02/CoM05l.wav	1.0	1	1.964
178.9871	5.2429999999999986	SP_S	1.0	n/a	n/a	n/a	n/a	Plaus/Plaus_run-02/stereo_PC02.wav	n/a	0	n/a
184.2409	6.82	SP_C	1.0	n/a	n/a	1.0	1.074	Plaus/Plaus_run-02/CoM09l.wav	1.0	1	1.824
191.0636	7.183	SP_I	2.0	n/a	n/a	2.0	3.695	Plaus/Plaus_run-02/stereo_PI78.wav	2.0	1	1.7769999999999997
198.2522	6.727	SP_W	1.0	n/a	n/a	1.0	3.907	Plaus/Plaus_run-02/stereo_PW40.wav	1.0	1	1.674
204.9904	5.181	SP_S	1.0	n/a	n/a	1.0	3.302	Plaus/Plaus_run-02/stereo_PC60.wav	1.0	1	2.012
210.1775	7.135	SP_W	1.0	n/a	n/a	1.0	5.341	Plaus/Plaus_run-02/stereo_PW73.wav	1.0	1	3.409
217.3172	6.76	SP_C	1.0	n/a	n/a	1.0	1.365	Plaus/Plaus_run-02/CoM04l.wav	1.0	1	2.115
224.0887	6.682	SP_I	2.0	n/a	n/a	2.0	5.402	Plaus/Plaus_run-02/stereo_PI75.wav	2.0	1	3.406
230.7769	6.002999999999999	SP_W	1.0	n/a	n/a	2.0	3.525	Plaus/Plaus_run-02/stereo_PW63.wav	2.0	0	2.378
236.7825	5.0760000000000005	SP_W	1.0	n/a	n/a	1.0	2.603	Plaus/Plaus_run-02/stereo_PW05.wav	1.0	1	1.8250000000000002
241.8694	6.218	SP_S	1.0	n/a	n/a	1.0	3.9360000000000004	Plaus/Plaus_run-02/stereo_PC69.wav	1.0	1	1.6990000000000003
248.0918	6.569	SP_S	1.0	n/a	n/a	1.0	4.308	Plaus/Plaus_run-02/stereo_PC70.wav	1.0	1	2.432
