onset	duration	trial_type	correct	window1_response	window1_RT	window2_response	window2_RT	stim_file	calculated_response	calculated_accuracy	calculated_RT
1.15	7.034	SP_W	1.0	n/a	n/a	1.0	4.276	Plaus/Plaus_run-01/stereo_PW85.wav	1.0	1	2.1289999999999996
8.199	5.641	SP_I	2.0	n/a	n/a	2.0	2.859	Plaus/Plaus_run-01/stereo_PI11.wav	2.0	1	1.9389999999999998
13.849	6.77	SP_C	1.0	n/a	n/a	1.0	0.72	Plaus/Plaus_run-01/CoM08b.wav	1.0	1	1.47
20.632	7.327000000000001	SP_W	1.0	n/a	n/a	1.0	3.782	Plaus/Plaus_run-01/stereo_PW72.wav	1.0	1	1.802
27.966	6.145	SP_C	1.0	n/a	n/a	1.0	0.821	Plaus/Plaus_run-01/CoM05d.wav	1.0	1	1.571
34.115	5.181	SP_I	2.0	n/a	n/a	2.0	3.096	Plaus/Plaus_run-01/stereo_PI65.wav	2.0	1	2.154
39.299	5.092	SP_S	1.0	n/a	n/a	1.0	3.1889999999999996	Plaus/Plaus_run-01/stereo_PC13.wav	1.0	1	2.126
44.398	7.355	SP_C	1.0	n/a	n/a	1.0	0.41200000000000003	Plaus/Plaus_run-01/CoM06l.wav	1.0	1	1.162
51.765	7.47	SP_I	2.0	n/a	n/a	2.0	4.1080000000000005	Plaus/Plaus_run-01/stereo_PI90.wav	2.0	1	1.9370000000000007
59.24800000000001	7.399	SP_S	1.0	n/a	n/a	1.0	4.3180000000000005	Plaus/Plaus_run-01/stereo_PC35.wav	1.0	1	2.0510000000000006
66.648	5.685	SP_S	1.0	n/a	n/a	1.0	3.344	Plaus/Plaus_run-01/stereo_PC47.wav	1.0	1	2.335
72.348	5.669	SP_W	1.0	n/a	n/a	1.0	3.372	Plaus/Plaus_run-01/stereo_PW19.wav	1.0	1	2.3659999999999997
78.031	7.9	SP_C	1.0	n/a	n/a	1.0	0.442	Plaus/Plaus_run-01/CoM03l.wav	1.0	1	1.192
85.931	5.145	SP_I	2.0	n/a	n/a	2.0	2.7539999999999996	Plaus/Plaus_run-01/stereo_PI09.wav	2.0	1	1.7460000000000002
91.081	6.9170000000000025	SP_W	1.0	n/a	n/a	1.0	4.113	Plaus/Plaus_run-01/stereo_PW30.wav	1.0	1	1.9930000000000003
98.014	5.738	SP_S	1.0	n/a	n/a	1.0	3.033	Plaus/Plaus_run-01/stereo_PC14.wav	1.0	1	1.8619999999999999
103.764	6.276	SP_W	1.0	n/a	n/a	1.0	2.9	Plaus/Plaus_run-01/stereo_PW50.wav	1.0	1	2.078
110.047	5.49	SP_C	1.0	n/a	n/a	1.0	0.5920000000000001	Plaus/Plaus_run-01/CoM03d.wav	1.0	1	1.342
115.547	5.7	SP_I	2.0	n/a	n/a	2.0	3.3080000000000003	Plaus/Plaus_run-01/stereo_PI67.wav	2.0	1	2.4170000000000003
121.263	7.237	SP_S	1.0	n/a	n/a	1.0	3.8810000000000002	Plaus/Plaus_run-01/stereo_PC68.wav	1.0	1	1.9149999999999996
128.513	6.49	SP_C	1.0	n/a	n/a	1.0	0.611	Plaus/Plaus_run-01/CoM03b.wav	1.0	1	1.361
135.013	6.25	SP_W	1.0	n/a	n/a	1.0	3.0269999999999997	Plaus/Plaus_run-01/stereo_PW61.wav	1.0	1	2.047
141.263	6.952999999999999	SP_I	2.0	n/a	n/a	2.0	4.692	Plaus/Plaus_run-01/stereo_PI32.wav	2.0	1	2.527
148.22899999999996	7.085	SP_C	1.0	n/a	n/a	1.0	0.721	Plaus/Plaus_run-01/CoM02e.wav	1.0	1	1.471
155.329	6.3610000000000015	SP_S	1.0	n/a	n/a	1.0	4.6	Plaus/Plaus_run-01/stereo_PC24.wav	1.0	1	2.3419999999999996
161.696	5.1110000000000015	SP_W	1.0	n/a	n/a	2.0	3.701	Plaus/Plaus_run-01/stereo_PW53.wav	2.0	0	2.6870000000000003
166.812	6.2860000000000005	SP_I	2.0	n/a	n/a	2.0	4.7589999999999995	Plaus/Plaus_run-01/stereo_PI42.wav	2.0	1	2.5630000000000006
173.112	6.577000000000001	SP_S	1.0	n/a	n/a	1.0	3.088	Plaus/Plaus_run-01/stereo_PC57.wav	1.0	1	1.893
179.695	5.273	SP_W	1.0	n/a	n/a	n/a	n/a	Plaus/Plaus_run-01/stereo_PW18.wav	n/a	0	n/a
184.978	5.77	SP_C	1.0	1.0	0.109	1.0	0.8220000000000001	Plaus/Plaus_run-01/CoM09b.wav	1.0	1	0.109
190.762	6.731	SP_S	1.0	n/a	n/a	1.0	3.926	Plaus/Plaus_run-01/stereo_PC26.wav	1.0	1	1.826
197.495	7.212999999999999	SP_I	2.0	n/a	n/a	2.0	4.377	Plaus/Plaus_run-01/stereo_PI33.wav	2.0	1	2.3939999999999997
204.711	5.181	SP_S	1.0	n/a	n/a	1.0	2.8810000000000002	Plaus/Plaus_run-01/stereo_PC01.wav	1.0	1	1.94
209.894	6.238	SP_S	1.0	n/a	n/a	1.0	4.165	Plaus/Plaus_run-01/stereo_PC36.wav	1.0	1	2.1189999999999998
216.144	7.73	SP_C	1.0	n/a	n/a	1.0	0.337	Plaus/Plaus_run-01/CoM10e.wav	1.0	1	1.087
223.877	6.843	SP_I	2.0	n/a	n/a	1.0	5.343	Plaus/Plaus_run-01/stereo_PI45.wav	1.0	0	3.216
230.727	6.101	SP_W	1.0	n/a	n/a	n/a	n/a	Plaus/Plaus_run-01/stereo_PW28.wav	n/a	0	n/a
236.844	7.419	SP_W	1.0	n/a	n/a	1.0	4.563	Plaus/Plaus_run-01/stereo_PW86.wav	1.0	1	2.527
244.277	6.54	SP_C	1.0	n/a	n/a	1.0	0.311	Plaus/Plaus_run-01/CoM05e.wav	1.0	1	1.061
250.827	6.247000000000001	SP_I	2.0	n/a	n/a	2.0	4.437	Plaus/Plaus_run-01/stereo_PI12.wav	2.0	1	3.5660000000000003
