onset	duration	trial_type	correct	window1_response	window1_RT	window2_response	window2_RT	stim_file	calculated_response	calculated_accuracy	calculated_RT
1.084	3.4539999999999997	P_R	1.0	n/a	n/a	1.0	2.128	Phon/Phon_run-01/stereo_PR01.wav	1.0	1	1.8780000000000001
4.553	3.767	P_O	1.0	n/a	n/a	1.0	1.128	Phon/Phon_run-01/PC018.wav	1.0	1	0.8779999999999999
8.323	3.391	P_O	1.0	n/a	n/a	n/a	n/a	Phon/Phon_run-01/PC009.wav	n/a	0	n/a
11.725	4.374	P_C	1.0	n/a	n/a	1.0	0.375	Phon/Phon_run-01/ContS11.wav	1.0	1	1.125
16.112000000000002	3.345	P_U	2.0	n/a	n/a	1.0	1.925	Phon/Phon_run-01/PM002.wav	1.0	0	1.675
19.465	4.4510000000000005	P_C	1.0	n/a	n/a	1.0	0.109	Phon/Phon_run-01/ContS21.wav	1.0	1	0.859
23.91800000000001	4.382	P_O	1.0	n/a	n/a	1.0	1.307	Phon/Phon_run-01/PC005.wav	1.0	1	1.057
28.305	3.3	P_U	2.0	n/a	n/a	2.0	1.661	Phon/Phon_run-01/stereo_PU26.wav	2.0	1	1.411
31.607	4.324	P_C	1.0	n/a	n/a	1.0	0.35700000000000004	Phon/Phon_run-01/ContS03.wav	1.0	1	1.107
35.944	4.378	P_R	1.0	n/a	n/a	1.0	1.3259999999999998	Phon/Phon_run-01/stereo_PR29.wav	1.0	1	1.0759999999999998
40.33	3.4810000000000003	P_U	2.0	n/a	n/a	n/a	n/a	Phon/Phon_run-01/PM020.wav	n/a	0	n/a
43.816	4.393	P_O	1.0	n/a	n/a	2.0	2.233	Phon/Phon_run-01/PC027.wav	2.0	0	1.983
48.22	4.4	P_R	1.0	n/a	n/a	1.0	1.5	Phon/Phon_run-01/stereo_PR11.wav	1.0	1	1.25
52.62300000000001	3.884	P_C	1.0	n/a	n/a	1.0	0.494	Phon/Phon_run-01/ContS05.wav	1.0	1	1.244
56.50899999999999	3.891	P_U	2.0	n/a	n/a	n/a	n/a	Phon/Phon_run-01/stereo_PU28.wav	n/a	0	n/a
60.412	4.4	P_O	1.0	n/a	n/a	1.0	1.446	Phon/Phon_run-01/PC013.wav	1.0	1	1.196
64.816	3.513	P_C	1.0	n/a	n/a	1.0	0.402	Phon/Phon_run-01/ContS17.wav	1.0	1	1.1520000000000001
68.335	4.4	P_U	2.0	n/a	n/a	2.0	1.492	Phon/Phon_run-01/PM027.wav	2.0	1	1.242
72.73899999999998	4.4	P_O	1.0	n/a	n/a	1.0	2.545	Phon/Phon_run-01/PC021.wav	1.0	1	2.295
77.142	4.496	P_C	1.0	n/a	n/a	1.0	0.081	Phon/Phon_run-01/ContS29.wav	1.0	1	0.831
81.645	3.3680000000000003	P_R	1.0	n/a	n/a	1.0	1.6340000000000001	Phon/Phon_run-01/stereo_PR25.wav	1.0	1	1.384
85.015	3.95	P_O	1.0	n/a	n/a	1.0	1.824	Phon/Phon_run-01/PC012.wav	1.0	1	1.574
88.96799999999998	3.95	P_U	2.0	n/a	n/a	n/a	n/a	Phon/Phon_run-01/PM003.wav	n/a	0	n/a
92.921	3.939	P_O	1.0	n/a	n/a	1.0	1.117	Phon/Phon_run-01/PC004.wav	1.0	1	0.867
96.874	3.59	P_C	1.0	n/a	n/a	1.0	0.9079999999999999	Phon/Phon_run-01/ContS27.wav	1.0	1	1.658
100.476	4.296	P_U	2.0	n/a	n/a	n/a	n/a	Phon/Phon_run-01/stereo_PU21.wav	n/a	0	n/a
104.78	3.862	P_R	1.0	n/a	n/a	1.0	1.081	Phon/Phon_run-01/stereo_PR26.wav	1.0	1	0.831
108.649	3.95	P_O	1.0	n/a	n/a	1.0	1.1340000000000001	Phon/Phon_run-01/PC026.wav	1.0	1	0.8839999999999999
112.602	3.5	P_O	1.0	n/a	n/a	1.0	1.194	Phon/Phon_run-01/PC025.wav	1.0	1	0.944
116.105	4.013	P_C	1.0	n/a	n/a	1.0	0.32	Phon/Phon_run-01/ContS23.wav	1.0	1	1.07
120.125	3.792	P_R	1.0	n/a	n/a	1.0	1.4380000000000002	Phon/Phon_run-01/stereo_PR18.wav	1.0	1	1.1880000000000002
123.928	3.346	P_U	2.0	n/a	n/a	2.0	1.953	Phon/Phon_run-01/stereo_PU19.wav	2.0	1	1.703
127.28	3.891	P_R	1.0	n/a	n/a	1.0	1.08	Phon/Phon_run-01/stereo_PR03.wav	1.0	1	0.8300000000000001
131.183	3.355	P_O	1.0	n/a	n/a	1.0	1.21	Phon/Phon_run-01/PC003.wav	1.0	1	0.96
134.55200000000002	3.951	P_C	1.0	n/a	n/a	1.0	0.18	Phon/Phon_run-01/ContS15.wav	1.0	1	0.9299999999999999
138.505	3.74	P_U	2.0	n/a	n/a	2.0	1.963	Phon/Phon_run-01/stereo_PU16.wav	2.0	1	1.713
142.25799999999995	3.95	P_R	1.0	n/a	n/a	1.0	1.2209999999999999	Phon/Phon_run-01/stereo_PR10.wav	1.0	1	0.9710000000000001
146.211	3.464	P_C	1.0	n/a	n/a	1.0	0.7120000000000001	Phon/Phon_run-01/ContS09.wav	1.0	1	1.4620000000000002
149.681	4.275	P_R	1.0	n/a	n/a	1.0	1.725	Phon/Phon_run-01/stereo_PR04.wav	1.0	1	1.475
153.967	3.95	P_U	2.0	n/a	n/a	2.0	2.398	Phon/Phon_run-01/PM023.wav	2.0	1	2.148
157.92	4.4	P_U	2.0	n/a	n/a	1.0	2.336	Phon/Phon_run-01/PM001.wav	1.0	0	2.086
162.32399999999996	3.665	P_C	1.0	n/a	n/a	1.0	0.541	Phon/Phon_run-01/ContS35.wav	1.0	1	1.291
165.993	3.463	P_O	1.0	n/a	n/a	1.0	1.331	Phon/Phon_run-01/PC017.wav	1.0	1	1.081
169.46200000000005	4.332	P_R	1.0	n/a	n/a	1.0	1.33	Phon/Phon_run-01/stereo_PR19.wav	1.0	1	1.08
173.799	4.083	P_C	1.0	n/a	n/a	1.0	0.095	Phon/Phon_run-01/ContS33.wav	1.0	1	0.845
177.886	3.5	P_R	1.0	n/a	n/a	1.0	2.062	Phon/Phon_run-01/stereo_PR17.wav	1.0	1	1.8119999999999998
181.388	4.2669999999999995	P_U	2.0	n/a	n/a	2.0	2.168	Phon/Phon_run-01/PM009.wav	2.0	1	1.9180000000000001
185.658	3.4389999999999996	P_R	1.0	n/a	n/a	1.0	1.2009999999999998	Phon/Phon_run-01/stereo_PR09.wav	1.0	1	0.9509999999999998
