onset	duration	trial_type	correct	window1_response	window1_RT	window2_response	window2_RT	stim_file	calculated_response	calculated_accuracy	calculated_RT
1.0907	4.2010000000000005	S_U	2.0	n/a	n/a	2.0	1.905	Sem/Sem_run-02/stereo_1SU33A0.wav	2.0	1	1.655
5.2947	3.486	S_U	2.0	n/a	n/a	2.0	2.06	Sem/Sem_run-02/stereo_2SU85A0.wav	2.0	1	1.81
8.7817	3.8539999999999996	S_H	1.0	n/a	n/a	1.0	1.446	Sem/Sem_run-02/stereo_2SH50A0.wav	1.0	1	1.196
12.6503	3.454	S_C	1.0	n/a	n/a	1.0	1.419	Sem/Sem_run-02/ContS08.wav	1.0	1	2.169
16.1195	4.33	S_H	1.0	n/a	n/a	1.0	1.618	Sem/Sem_run-02/stereo_1SH10A0.wav	1.0	1	1.368
20.4559	3.872	S_L	1.0	n/a	n/a	1.0	1.7830000000000001	Sem/Sem_run-02/stereo_2SL61A0.wav	1.0	1	1.533
24.3421	3.885	S_L	1.0	n/a	n/a	1.0	1.5590000000000002	Sem/Sem_run-02/stereo_1SL23A0.wav	1.0	1	1.3090000000000002
28.2293	4.2	S_U	2.0	n/a	n/a	2.0	1.67	Sem/Sem_run-02/stereo_1SU42A0.wav	2.0	1	1.42
32.4326	3.321	S_L	1.0	n/a	n/a	1.0	1.6580000000000001	Sem/Sem_run-02/stereo_1SL16A0.wav	1.0	1	1.408
35.7684	3.59	S_C	1.0	n/a	n/a	1.0	1.345	Sem/Sem_run-02/ContS26.wav	1.0	1	2.0949999999999998
39.3711	4.4	S_H	1.0	n/a	n/a	1.0	1.771	Sem/Sem_run-02/stereo_2SH60A0.wav	1.0	1	1.521
43.7745	4.311	S_L	1.0	n/a	n/a	2.0	1.8969999999999998	Sem/Sem_run-02/stereo_2SL75A0.wav	2.0	0	1.647
48.0943	3.912	S_H	1.0	n/a	n/a	n/a	n/a	Sem/Sem_run-02/stereo_2SH59A0.wav	n/a	0	n/a
52.0138	4.4	S_U	2.0	n/a	n/a	2.0	1.8969999999999998	Sem/Sem_run-02/stereo_2SU84A0.wav	2.0	1	1.647
56.4171	3.4210000000000003	S_U	2.0	n/a	n/a	n/a	n/a	Sem/Sem_run-02/stereo_1SU43A0.wav	n/a	0	n/a
59.8529	3.8539999999999996	S_C	1.0	n/a	n/a	1.0	1.077	Sem/Sem_run-02/ContS02.wav	1.0	1	1.827
63.7217	4.37	S_L	1.0	n/a	n/a	1.0	2.416	Sem/Sem_run-02/stereo_1SL19A0.wav	1.0	1	2.166
68.0927	3.862	S_L	1.0	n/a	n/a	1.0	1.5419999999999998	Sem/Sem_run-02/stereo_1SL18A0.wav	1.0	1	1.2919999999999998
71.9622	4.462	S_C	1.0	n/a	n/a	1.0	1.4	Sem/Sem_run-02/ContS22.wav	1.0	1	2.15
76.4321	3.406	S_L	1.0	n/a	n/a	1.0	2.198	Sem/Sem_run-02/stereo_1SL21A0.wav	1.0	1	1.948
79.8515	3.355	S_U	2.0	n/a	n/a	2.0	1.3980000000000001	Sem/Sem_run-02/stereo_1SU36A0.wav	2.0	1	1.148
83.2206	4.324	S_C	1.0	n/a	n/a	1.0	1.646	Sem/Sem_run-02/ContS04.wav	1.0	1	2.396
87.5571	4.253	S_L	1.0	n/a	n/a	1.0	1.8090000000000002	Sem/Sem_run-02/stereo_1SL24A0.wav	1.0	1	1.559
91.8112	3.839	S_L	1.0	n/a	n/a	1.0	1.39	Sem/Sem_run-02/stereo_2SL70A0.wav	1.0	1	1.14
95.664	4.395	S_C	1.0	n/a	n/a	1.0	1.25	Sem/Sem_run-02/ContS14.wav	1.0	1	2.0
100.0673	3.8739999999999997	S_H	1.0	n/a	n/a	1.0	1.758	Sem/Sem_run-02/stereo_1SH09A0.wav	1.0	1	1.508
103.9534	3.75	S_U	2.0	n/a	n/a	2.0	1.984	Sem/Sem_run-02/stereo_1SU32A0.wav	2.0	1	1.734
107.7063	3.641	S_C	1.0	n/a	n/a	1.0	1.886	Sem/Sem_run-02/ContS34.wav	1.0	1	2.636
111.359	3.338	S_U	2.0	n/a	n/a	2.0	1.569	Sem/Sem_run-02/stereo_1SU31A0.wav	2.0	1	1.319
114.7114	3.45	S_L	1.0	n/a	n/a	1.0	1.9980000000000002	Sem/Sem_run-02/stereo_2SL68A0.wav	1.0	1	1.748
118.164	3.8510000000000004	S_H	1.0	n/a	n/a	1.0	1.176	Sem/Sem_run-02/stereo_1SH14A0.wav	1.0	1	0.9259999999999999
122.0178	3.459	S_H	1.0	n/a	n/a	1.0	1.31	Sem/Sem_run-02/stereo_1SH01A0.wav	1.0	1	1.06
125.4869	3.512	S_C	1.0	n/a	n/a	1.0	0.833	Sem/Sem_run-02/ContS16.wav	1.0	1	1.583
129.0062	3.489	S_H	1.0	n/a	n/a	1.0	1.93	Sem/Sem_run-02/stereo_1SH12A0.wav	1.0	1	1.68
132.5087	3.8489999999999998	S_U	2.0	n/a	n/a	2.0	1.42	Sem/Sem_run-02/stereo_2SU86A0.wav	2.0	1	1.17
136.3616	3.46	S_L	1.0	n/a	n/a	1.0	1.4969999999999999	Sem/Sem_run-02/stereo_1SL28A0.wav	1.0	1	1.247
139.8308	4.53	S_C	1.0	n/a	n/a	1.0	1.375	Sem/Sem_run-02/ContS32.wav	1.0	1	2.125
144.3674	4.351	S_H	1.0	n/a	n/a	1.0	1.3530000000000002	Sem/Sem_run-02/stereo_2SH52A0.wav	1.0	1	1.1030000000000002
148.7216	3.48	S_H	1.0	n/a	n/a	1.0	1.7830000000000001	Sem/Sem_run-02/stereo_2SH47A0.wav	1.0	1	1.533
152.2075	3.3	S_H	1.0	n/a	n/a	1.0	1.371	Sem/Sem_run-02/stereo_2SH53A0.wav	1.0	1	1.121
155.5099	3.847	S_U	2.0	n/a	n/a	2.0	1.619	Sem/Sem_run-02/stereo_1SU39A0.wav	2.0	1	1.369
159.3627	3.923	S_C	1.0	n/a	n/a	1.0	1.889	Sem/Sem_run-02/ContS10.wav	1.0	1	2.6390000000000002
163.2989	3.7510000000000003	S_U	2.0	n/a	n/a	2.0	2.315	Sem/Sem_run-02/stereo_2SU80A0.wav	2.0	1	2.065
167.0527	4.2	S_L	1.0	n/a	n/a	1.0	1.514	Sem/Sem_run-02/stereo_2SL66A0.wav	1.0	1	1.264
171.2559	3.99	S_C	1.0	n/a	n/a	1.0	1.374	Sem/Sem_run-02/ContS20.wav	1.0	1	2.124
175.2588	4.041	S_C	1.0	n/a	n/a	1.0	0.54	Sem/Sem_run-02/ContS28.wav	1.0	1	1.29
179.3117	4.2	S_U	2.0	n/a	n/a	2.0	1.8319999999999999	Sem/Sem_run-02/stereo_2SU89A0.wav	2.0	1	1.582
183.5149	4.368	S_H	1.0	n/a	n/a	1.0	1.45	Sem/Sem_run-02/stereo_2SH46A0.wav	1.0	1	1.2
