onset	duration	trial_type	correct	window1_response	window1_RT	window2_response	window2_RT	stim_file	calculated_response	calculated_accuracy	calculated_RT
1.085	4.2010000000000005	S_U	2.0	n/a	n/a	2.0	1.1740000000000002	Sem/Sem_run-02/stereo_1SU33A0.wav	2.0	1	0.9240000000000002
5.287999999999999	3.486	S_U	2.0	n/a	n/a	2.0	1.6280000000000001	Sem/Sem_run-02/stereo_2SU85A0.wav	2.0	1	1.378
8.774	3.8539999999999996	S_H	1.0	n/a	n/a	1.0	1.125	Sem/Sem_run-02/stereo_2SH50A0.wav	1.0	1	0.875
12.643	3.454	S_C	1.0	n/a	n/a	1.0	0.109	Sem/Sem_run-02/ContS08.wav	1.0	1	0.8590000000000001
16.113	4.33	S_H	1.0	n/a	n/a	1.0	1.094	Sem/Sem_run-02/stereo_1SH10A0.wav	1.0	1	0.8440000000000001
20.449	3.872	S_L	1.0	n/a	n/a	2.0	1.531	Sem/Sem_run-02/stereo_2SL61A0.wav	2.0	0	1.281
24.336	3.885	S_L	1.0	n/a	n/a	1.0	1.331	Sem/Sem_run-02/stereo_1SL23A0.wav	1.0	1	1.081
28.222	4.2	S_U	2.0	n/a	n/a	2.0	1.3869999999999998	Sem/Sem_run-02/stereo_1SU42A0.wav	2.0	1	1.1369999999999998
32.425	3.321	S_L	1.0	n/a	n/a	1.0	1.1420000000000001	Sem/Sem_run-02/stereo_1SL16A0.wav	1.0	1	0.8919999999999999
35.761	3.59	S_C	1.0	n/a	n/a	1.0	0.066	Sem/Sem_run-02/ContS26.wav	1.0	1	0.8160000000000001
39.364	4.4	S_H	1.0	n/a	n/a	1.0	1.177	Sem/Sem_run-02/stereo_2SH60A0.wav	1.0	1	0.927
43.767	4.311	S_L	1.0	n/a	n/a	1.0	1.263	Sem/Sem_run-02/stereo_2SL75A0.wav	1.0	1	1.013
48.087	3.912	S_H	1.0	n/a	n/a	1.0	2.34	Sem/Sem_run-02/stereo_2SH59A0.wav	1.0	1	2.09
52.007	4.4	S_U	2.0	n/a	n/a	1.0	1.275	Sem/Sem_run-02/stereo_2SU84A0.wav	1.0	0	1.025
56.41	3.4210000000000003	S_U	2.0	n/a	n/a	2.0	1.492	Sem/Sem_run-02/stereo_1SU43A0.wav	2.0	1	1.242
59.846	3.8539999999999996	S_C	1.0	n/a	n/a	1.0	0.08	Sem/Sem_run-02/ContS02.wav	1.0	1	0.83
63.715	4.37	S_L	1.0	n/a	n/a	1.0	1.442	Sem/Sem_run-02/stereo_1SL19A0.wav	1.0	1	1.192
68.085	3.862	S_L	1.0	n/a	n/a	1.0	1.452	Sem/Sem_run-02/stereo_1SL18A0.wav	1.0	1	1.202
71.955	4.462	S_C	1.0	n/a	n/a	1.0	0.09	Sem/Sem_run-02/ContS22.wav	1.0	1	0.84
76.425	3.406	S_L	1.0	n/a	n/a	1.0	0.991	Sem/Sem_run-02/stereo_1SL21A0.wav	1.0	1	0.741
79.844	3.355	S_U	2.0	n/a	n/a	2.0	1.412	Sem/Sem_run-02/stereo_1SU36A0.wav	2.0	1	1.162
83.214	4.324	S_C	1.0	n/a	n/a	1.0	0.423	Sem/Sem_run-02/ContS04.wav	1.0	1	1.173
87.55	4.253	S_L	1.0	n/a	n/a	2.0	1.827	Sem/Sem_run-02/stereo_1SL24A0.wav	2.0	0	1.577
91.803	3.839	S_L	1.0	n/a	n/a	1.0	2.174	Sem/Sem_run-02/stereo_2SL70A0.wav	1.0	1	1.924
95.656	4.395	S_C	1.0	n/a	n/a	1.0	0.19899999999999998	Sem/Sem_run-02/ContS14.wav	1.0	1	0.9490000000000001
100.06	3.8739999999999997	S_H	1.0	n/a	n/a	1.0	1.331	Sem/Sem_run-02/stereo_1SH09A0.wav	1.0	1	1.081
103.946	3.75	S_U	2.0	n/a	n/a	2.0	1.3840000000000001	Sem/Sem_run-02/stereo_1SU32A0.wav	2.0	1	1.134
107.699	3.641	S_C	1.0	n/a	n/a	1.0	0.44299999999999995	Sem/Sem_run-02/ContS34.wav	1.0	1	1.193
111.352	3.338	S_U	2.0	n/a	n/a	2.0	1.858	Sem/Sem_run-02/stereo_1SU31A0.wav	2.0	1	1.608
114.704	3.45	S_L	1.0	n/a	n/a	1.0	1.133	Sem/Sem_run-02/stereo_2SL68A0.wav	1.0	1	0.883
118.157	3.8510000000000004	S_H	1.0	n/a	n/a	1.0	0.993	Sem/Sem_run-02/stereo_1SH14A0.wav	1.0	1	0.743
122.01	3.459	S_H	1.0	n/a	n/a	1.0	1.423	Sem/Sem_run-02/stereo_1SH01A0.wav	1.0	1	1.173
125.479	3.512	S_C	1.0	n/a	n/a	1.0	0.22	Sem/Sem_run-02/ContS16.wav	1.0	1	0.97
128.998	3.489	S_H	1.0	n/a	n/a	1.0	1.423	Sem/Sem_run-02/stereo_1SH12A0.wav	1.0	1	1.173
132.501	3.8489999999999998	S_U	2.0	n/a	n/a	2.0	1.436	Sem/Sem_run-02/stereo_2SU86A0.wav	2.0	1	1.186
136.35399999999998	3.46	S_L	1.0	n/a	n/a	2.0	2.028	Sem/Sem_run-02/stereo_1SL28A0.wav	2.0	0	1.778
139.82299999999998	4.53	S_C	1.0	n/a	n/a	1.0	0.09699999999999999	Sem/Sem_run-02/ContS32.wav	1.0	1	0.847
144.36	4.351	S_H	1.0	n/a	n/a	1.0	1.173	Sem/Sem_run-02/stereo_2SH52A0.wav	1.0	1	0.923
148.713	3.48	S_H	1.0	n/a	n/a	1.0	1.051	Sem/Sem_run-02/stereo_2SH47A0.wav	1.0	1	0.8009999999999999
152.19899999999996	3.3	S_H	1.0	n/a	n/a	2.0	1.643	Sem/Sem_run-02/stereo_2SH53A0.wav	2.0	0	1.393
155.502	3.847	S_U	2.0	n/a	n/a	1.0	2.326	Sem/Sem_run-02/stereo_1SU39A0.wav	1.0	0	2.076
159.355	3.923	S_C	1.0	n/a	n/a	1.0	0.325	Sem/Sem_run-02/ContS10.wav	1.0	1	1.075
163.291	3.7510000000000003	S_U	2.0	n/a	n/a	1.0	1.423	Sem/Sem_run-02/stereo_2SU80A0.wav	1.0	0	1.173
167.044	4.2	S_L	1.0	n/a	n/a	1.0	1.245	Sem/Sem_run-02/stereo_2SL66A0.wav	1.0	1	0.995
171.247	3.99	S_C	1.0	1.0	0.684	n/a	n/a	Sem/Sem_run-02/ContS20.wav	1.0	1	0.684
175.25	4.041	S_C	1.0	n/a	n/a	1.0	0.382	Sem/Sem_run-02/ContS28.wav	1.0	1	1.1320000000000001
179.303	4.2	S_U	2.0	n/a	n/a	2.0	1.239	Sem/Sem_run-02/stereo_2SU89A0.wav	2.0	1	0.9890000000000001
183.506	4.368	S_H	1.0	n/a	n/a	1.0	1.237	Sem/Sem_run-02/stereo_2SH46A0.wav	1.0	1	0.987
