onset	duration	trial_type	correct	window1_response	window1_RT	window2_response	window2_RT	stim_file	calculated_response	calculated_accuracy	calculated_RT
1.0964	7.034	SP_W	1.0	n/a	n/a	1.0	3.78	Plaus/Plaus_run-01/stereo_PW85.wav	1.0	1	1.6329999999999996
8.1359	5.641	SP_I	2.0	n/a	n/a	2.0	2.2840000000000003	Plaus/Plaus_run-01/stereo_PI11.wav	2.0	1	1.364
13.79	6.77	SP_C	1.0	n/a	n/a	1.0	0.853	Plaus/Plaus_run-01/CoM08b.wav	1.0	1	1.6030000000000002
20.5628	7.327000000000001	SP_W	1.0	n/a	n/a	1.0	3.3160000000000003	Plaus/Plaus_run-01/stereo_PW72.wav	1.0	1	1.3360000000000003
27.9014	6.145	SP_C	1.0	n/a	n/a	1.0	0.324	Plaus/Plaus_run-01/CoM05d.wav	1.0	1	1.074
34.0559	5.181	SP_I	2.0	n/a	n/a	2.0	2.245	Plaus/Plaus_run-01/stereo_PI65.wav	2.0	1	1.3030000000000002
39.243	5.092	SP_S	1.0	n/a	n/a	2.0	2.264	Plaus/Plaus_run-01/stereo_PC13.wav	2.0	0	1.2009999999999998
44.3468	7.355	SP_C	1.0	n/a	n/a	1.0	0.726	Plaus/Plaus_run-01/CoM06l.wav	1.0	1	1.476
51.7032	7.47	SP_I	2.0	n/a	n/a	2.0	3.745	Plaus/Plaus_run-01/stereo_PI90.wav	2.0	1	1.5740000000000005
59.1764	7.399	SP_S	1.0	n/a	n/a	1.0	4.039	Plaus/Plaus_run-01/stereo_PC35.wav	1.0	1	1.7719999999999998
66.5818	5.685	SP_S	1.0	n/a	n/a	1.0	3.015	Plaus/Plaus_run-01/stereo_PC47.wav	1.0	1	2.006
72.2704	5.669	SP_W	1.0	n/a	n/a	1.0	2.643	Plaus/Plaus_run-01/stereo_PW19.wav	1.0	1	1.6370000000000002
77.9423	7.9	SP_C	1.0	n/a	n/a	1.0	0.698	Plaus/Plaus_run-01/CoM03l.wav	1.0	1	1.4480000000000002
85.8483	5.145	SP_I	2.0	n/a	n/a	2.0	2.834	Plaus/Plaus_run-01/stereo_PI09.wav	2.0	1	1.826
91.0021	6.9170000000000025	SP_W	1.0	n/a	n/a	1.0	3.662	Plaus/Plaus_run-01/stereo_PW30.wav	1.0	1	1.5419999999999998
97.9243	5.738	SP_S	1.0	n/a	n/a	1.0	3.123	Plaus/Plaus_run-01/stereo_PC14.wav	1.0	1	1.952
103.6662	6.276	SP_W	1.0	n/a	n/a	2.0	2.83	Plaus/Plaus_run-01/stereo_PW50.wav	2.0	0	2.008
109.954	5.49	SP_C	1.0	n/a	n/a	1.0	0.248	Plaus/Plaus_run-01/CoM03d.wav	1.0	1	0.998
115.458	5.7	SP_I	2.0	n/a	n/a	2.0	4.263999999999999	Plaus/Plaus_run-01/stereo_PI67.wav	2.0	1	3.3729999999999984
121.1625	7.237	SP_S	1.0	n/a	n/a	1.0	4.2	Plaus/Plaus_run-01/stereo_PC68.wav	1.0	1	2.234
128.4022	6.49	SP_C	1.0	n/a	n/a	1.0	1.15	Plaus/Plaus_run-01/CoM03b.wav	1.0	1	1.9
134.9065	6.25	SP_W	1.0	n/a	n/a	1.0	2.532	Plaus/Plaus_run-01/stereo_PW61.wav	1.0	1	1.5519999999999998
141.161	6.952999999999999	SP_I	2.0	n/a	n/a	2.0	3.788	Plaus/Plaus_run-01/stereo_PI32.wav	2.0	1	1.6230000000000002
148.1173	7.085	SP_C	1.0	n/a	n/a	1.0	2.273	Plaus/Plaus_run-01/CoM02e.wav	1.0	1	3.023
155.2068	6.3610000000000015	SP_S	1.0	n/a	n/a	1.0	3.763	Plaus/Plaus_run-01/stereo_PC24.wav	1.0	1	1.505
161.5781	5.1110000000000015	SP_W	1.0	n/a	n/a	1.0	2.734	Plaus/Plaus_run-01/stereo_PW53.wav	1.0	1	1.7200000000000002
166.6985	6.2860000000000005	SP_I	2.0	n/a	n/a	1.0	3.354	Plaus/Plaus_run-01/stereo_PI42.wav	1.0	0	1.158
172.9876	6.577000000000001	SP_S	1.0	n/a	n/a	1.0	2.625	Plaus/Plaus_run-01/stereo_PC57.wav	1.0	1	1.43
179.5757	5.273	SP_W	1.0	n/a	n/a	1.0	2.935	Plaus/Plaus_run-01/stereo_PW18.wav	1.0	1	1.768
184.8629	5.77	SP_C	1.0	n/a	n/a	1.0	0.648	Plaus/Plaus_run-01/CoM09b.wav	1.0	1	1.398
190.6348	6.731	SP_S	1.0	n/a	n/a	1.0	3.689	Plaus/Plaus_run-01/stereo_PC26.wav	1.0	1	1.5889999999999995
197.3731	7.212999999999999	SP_I	2.0	n/a	n/a	2.0	4.114	Plaus/Plaus_run-01/stereo_PI33.wav	2.0	1	2.131
204.595	5.181	SP_S	1.0	n/a	n/a	1.0	2.419	Plaus/Plaus_run-01/stereo_PC01.wav	1.0	1	1.4780000000000002
209.7821	6.238	SP_S	1.0	n/a	n/a	1.0	4.024	Plaus/Plaus_run-01/stereo_PC36.wav	1.0	1	1.978
216.0211	7.73	SP_C	1.0	n/a	n/a	2.0	0.387	Plaus/Plaus_run-01/CoM10e.wav	2.0	0	1.137
223.7601	6.843	SP_I	2.0	n/a	n/a	1.0	3.792	Plaus/Plaus_run-01/stereo_PI45.wav	1.0	0	1.665
230.615	6.101	SP_W	1.0	n/a	n/a	1.0	3.797	Plaus/Plaus_run-01/stereo_PW28.wav	1.0	1	1.8649999999999995
236.7206	7.419	SP_W	1.0	n/a	n/a	1.0	3.899	Plaus/Plaus_run-01/stereo_PW86.wav	1.0	1	1.8630000000000002
244.1438	6.54	SP_C	1.0	n/a	n/a	1.0	0.715	Plaus/Plaus_run-01/CoM05e.wav	1.0	1	1.465
250.6981	6.247000000000001	SP_I	2.0	n/a	n/a	2.0	2.469	Plaus/Plaus_run-01/stereo_PI12.wav	2.0	1	1.598
