onset	duration	trial_type	correct	window1_response	window1_RT	window2_response	window2_RT	stim_file	calculated_response	calculated_accuracy	calculated_RT
1.0925	3.4539999999999997	P_R	1.0	n/a	n/a	1.0	2.086	Phon/Phon_run-01/stereo_PR01.wav	1.0	1	1.8359999999999999
4.5615	3.767	P_O	1.0	n/a	n/a	2.0	1.1179999999999999	Phon/Phon_run-01/PC018.wav	2.0	0	0.8680000000000001
8.3317	3.391	P_O	1.0	n/a	n/a	2.0	2.052	Phon/Phon_run-01/PC009.wav	2.0	0	1.802
11.7341	4.374	P_C	1.0	n/a	n/a	1.0	1.298	Phon/Phon_run-01/ContS11.wav	1.0	1	2.048
16.1207	3.345	P_U	2.0	n/a	n/a	2.0	1.54	Phon/Phon_run-01/PM002.wav	2.0	1	1.29
19.473	4.4510000000000005	P_C	1.0	n/a	n/a	1.0	0.728	Phon/Phon_run-01/ContS21.wav	1.0	1	1.478
23.9275	4.382	P_O	1.0	n/a	n/a	1.0	1.435	Phon/Phon_run-01/PC005.wav	1.0	1	1.185
28.314	3.3	P_U	2.0	n/a	n/a	2.0	1.868	Phon/Phon_run-01/stereo_PU26.wav	2.0	1	1.618
31.6165	4.324	P_C	1.0	n/a	n/a	1.0	1.1340000000000001	Phon/Phon_run-01/ContS03.wav	1.0	1	1.884
35.9529	4.378	P_R	1.0	n/a	n/a	1.0	2.046	Phon/Phon_run-01/stereo_PR29.wav	1.0	1	1.7959999999999998
40.3393	3.4810000000000003	P_U	2.0	n/a	n/a	2.0	1.501	Phon/Phon_run-01/PM020.wav	2.0	1	1.251
43.8252	4.393	P_O	1.0	n/a	n/a	1.0	1.594	Phon/Phon_run-01/PC027.wav	1.0	1	1.344
48.2284	4.4	P_R	1.0	n/a	n/a	1.0	2.147	Phon/Phon_run-01/stereo_PR11.wav	1.0	1	1.8969999999999998
52.6316	3.884	P_C	1.0	n/a	n/a	1.0	0.773	Phon/Phon_run-01/ContS05.wav	1.0	1	1.5230000000000001
56.5186	3.891	P_U	2.0	n/a	n/a	2.0	1.7919999999999998	Phon/Phon_run-01/stereo_PU28.wav	2.0	1	1.5419999999999998
60.4213	4.4	P_O	1.0	n/a	n/a	1.0	1.929	Phon/Phon_run-01/PC013.wav	1.0	1	1.679
64.8247	3.513	P_C	1.0	n/a	n/a	1.0	1.682	Phon/Phon_run-01/ContS17.wav	1.0	1	2.432
68.3439	4.4	P_U	2.0	n/a	n/a	2.0	1.449	Phon/Phon_run-01/PM027.wav	2.0	1	1.199
72.7471	4.4	P_O	1.0	n/a	n/a	1.0	2.194	Phon/Phon_run-01/PC021.wav	1.0	1	1.944
77.1504	4.496	P_C	1.0	n/a	n/a	1.0	1.002	Phon/Phon_run-01/ContS29.wav	1.0	1	1.752
81.6536	3.3680000000000003	P_R	1.0	n/a	n/a	1.0	1.655	Phon/Phon_run-01/stereo_PR25.wav	1.0	1	1.405
85.0239	3.95	P_O	1.0	n/a	n/a	1.0	1.58	Phon/Phon_run-01/PC012.wav	1.0	1	1.33
88.9768	3.95	P_U	2.0	n/a	n/a	2.0	1.8980000000000001	Phon/Phon_run-01/PM003.wav	2.0	1	1.648
92.9297	3.939	P_O	1.0	n/a	n/a	2.0	1.88	Phon/Phon_run-01/PC004.wav	2.0	0	1.63
96.8826	3.59	P_C	1.0	n/a	n/a	1.0	0.879	Phon/Phon_run-01/ContS27.wav	1.0	1	1.629
100.4851	4.296	P_U	2.0	n/a	n/a	2.0	1.651	Phon/Phon_run-01/stereo_PU21.wav	2.0	1	1.401
104.7882	3.862	P_R	1.0	n/a	n/a	1.0	2.221	Phon/Phon_run-01/stereo_PR26.wav	1.0	1	1.971
108.6576	3.95	P_O	1.0	n/a	n/a	1.0	2.1319999999999997	Phon/Phon_run-01/PC026.wav	1.0	1	1.8820000000000001
112.6107	3.5	P_O	1.0	n/a	n/a	1.0	1.476	Phon/Phon_run-01/PC025.wav	1.0	1	1.226
116.1133	4.013	P_C	1.0	n/a	n/a	1.0	1.5630000000000002	Phon/Phon_run-01/ContS23.wav	1.0	1	2.313
120.1329	3.792	P_R	1.0	n/a	n/a	1.0	2.2119999999999997	Phon/Phon_run-01/stereo_PR18.wav	1.0	1	1.9620000000000002
123.9359	3.346	P_U	2.0	n/a	n/a	2.0	1.127	Phon/Phon_run-01/stereo_PU19.wav	2.0	1	0.877
127.2885	3.891	P_R	1.0	n/a	n/a	1.0	1.785	Phon/Phon_run-01/stereo_PR03.wav	1.0	1	1.535
131.1913	3.355	P_O	1.0	n/a	n/a	1.0	1.672	Phon/Phon_run-01/PC003.wav	1.0	1	1.422
134.5604	3.951	P_C	1.0	n/a	n/a	1.0	0.5660000000000001	Phon/Phon_run-01/ContS15.wav	1.0	1	1.316
138.5144	3.74	P_U	2.0	n/a	n/a	2.0	1.896	Phon/Phon_run-01/stereo_PU16.wav	2.0	1	1.646
142.2671	3.95	P_R	1.0	n/a	n/a	n/a	n/a	Phon/Phon_run-01/stereo_PR10.wav	n/a	0	n/a
146.22	3.464	P_C	1.0	1.0	0.39	1.0	0.945	Phon/Phon_run-01/ContS09.wav	1.0	1	0.39
149.6892	4.275	P_R	1.0	n/a	n/a	1.0	1.194	Phon/Phon_run-01/stereo_PR04.wav	1.0	1	0.944
153.9756	3.95	P_U	2.0	n/a	n/a	2.0	1.405	Phon/Phon_run-01/PM023.wav	2.0	1	1.155
157.9284	4.4	P_U	2.0	n/a	n/a	2.0	1.598	Phon/Phon_run-01/PM001.wav	2.0	1	1.348
162.3319	3.665	P_C	1.0	n/a	n/a	1.0	1.46	Phon/Phon_run-01/ContS35.wav	1.0	1	2.21
166.0011	3.463	P_O	1.0	n/a	n/a	n/a	n/a	Phon/Phon_run-01/PC017.wav	1.0	1	3.357
169.4703	4.332	P_R	1.0	n/a	n/a	1.0	0.14400000000000002	Phon/Phon_run-01/stereo_PR19.wav	n/a	0	n/a
173.8067	4.083	P_C	1.0	n/a	n/a	1.0	1.2229999999999999	Phon/Phon_run-01/ContS33.wav	1.0	1	1.973
177.893	3.5	P_R	1.0	n/a	n/a	1.0	1.511	Phon/Phon_run-01/stereo_PR17.wav	1.0	1	1.261
181.3956	4.2669999999999995	P_U	2.0	n/a	n/a	1.0	1.485	Phon/Phon_run-01/PM009.wav	1.0	0	1.235
185.6658	3.4389999999999996	P_R	1.0	n/a	n/a	1.0	1.6030000000000002	Phon/Phon_run-01/stereo_PR09.wav	1.0	1	1.3530000000000002
