onset	duration	trial_type	correct	window1_response	window1_RT	window2_response	window2_RT	stim_file	calculated_response	calculated_accuracy	calculated_RT
1.0924	3.5	P_R	1.0	n/a	n/a	1.0	1.569	Phon/Phon_run-02/stereo_PR20.wav	1.0	1	1.319
4.595	4.235	P_O	1.0	n/a	n/a	1.0	1.308	Phon/Phon_run-02/PC034.wav	1.0	1	1.058
8.8325	3.375	P_R	1.0	n/a	n/a	1.0	1.632	Phon/Phon_run-02/stereo_PR13.wav	1.0	1	1.382
12.2183	3.474	P_C	1.0	n/a	n/a	1.0	0.348	Phon/Phon_run-02/ContS12.wav	1.0	1	1.0979999999999999
15.7041	3.875	P_U	2.0	n/a	n/a	2.0	1.327	Phon/Phon_run-02/PM025.wav	2.0	1	1.077
19.5903	3.726	P_R	1.0	n/a	n/a	1.0	1.367	Phon/Phon_run-02/stereo_PR22.wav	1.0	1	1.117
23.3263	3.451	P_O	1.0	n/a	n/a	2.0	1.194	Phon/Phon_run-02/PC014.wav	2.0	0	0.944
26.7799	3.779	P_C	1.0	n/a	n/a	1.0	0.46799999999999997	Phon/Phon_run-02/ContS02.wav	1.0	1	1.218
30.566	3.821	P_U	2.0	n/a	n/a	2.0	1.923	Phon/Phon_run-02/stereo_PU18.wav	2.0	1	1.673
34.402	3.49	P_U	2.0	n/a	n/a	2.0	1.734	Phon/Phon_run-02/stereo_PU12.wav	2.0	1	1.484
37.9046	4.38	P_C	1.0	n/a	n/a	1.0	0.349	Phon/Phon_run-02/ContS32.wav	1.0	1	1.099
42.291000000000004	4.0969999999999995	P_R	1.0	n/a	n/a	1.0	1.663	Phon/Phon_run-02/stereo_PR16.wav	1.0	1	1.413
46.394	3.5	P_O	1.0	n/a	n/a	1.0	1.445	Phon/Phon_run-02/PC022.wav	1.0	1	1.195
49.8966	4.0760000000000005	P_R	1.0	n/a	n/a	1.0	1.444	Phon/Phon_run-02/stereo_PR08.wav	1.0	1	1.194
53.983000000000004	3.5	P_O	1.0	n/a	n/a	1.0	1.91	Phon/Phon_run-02/PC028.wav	1.0	1	1.66
57.4856	3.5	P_U	2.0	n/a	n/a	1.0	2.302	Phon/Phon_run-02/stereo_PU27.wav	1.0	0	2.052
60.9881	3.819	P_C	1.0	n/a	n/a	2.0	1.864	Phon/Phon_run-02/ContS06.wav	2.0	0	2.614
64.8086	4.25	P_O	1.0	n/a	n/a	1.0	1.8219999999999998	Phon/Phon_run-02/PC031.wav	1.0	1	1.572
69.062	3.662	P_C	1.0	n/a	n/a	1.0	0.773	Phon/Phon_run-02/ContS36.wav	1.0	1	1.5230000000000001
72.7312	3.823	P_O	1.0	n/a	n/a	1.0	2.602	Phon/Phon_run-02/PC023.wav	1.0	1	2.352
76.5674	4.323	P_C	1.0	n/a	n/a	1.0	0.703	Phon/Phon_run-02/ContS24.wav	1.0	1	1.4529999999999998
80.9038	3.865	P_U	2.0	n/a	n/a	2.0	1.548	Phon/Phon_run-02/PM004.wav	2.0	1	1.298
84.7733	3.875	P_O	1.0	n/a	n/a	1.0	1.771	Phon/Phon_run-02/PC007.wav	1.0	1	1.521
88.6594	4.25	P_U	2.0	n/a	n/a	2.0	2.764	Phon/Phon_run-02/PM011.wav	2.0	1	2.514
92.9126	4.362	P_C	1.0	n/a	n/a	1.0	0.73	Phon/Phon_run-02/ContS30.wav	1.0	1	1.48
97.2825	3.875	P_O	1.0	n/a	n/a	n/a	n/a	Phon/Phon_run-02/PC030.wav	n/a	0	n/a
101.1687	3.3360000000000003	P_R	1.0	n/a	n/a	1.0	1.786	Phon/Phon_run-02/stereo_PR05.wav	1.0	1	1.536
104.5077	4.113	P_U	2.0	n/a	n/a	2.0	1.931	Phon/Phon_run-02/stereo_PU01.wav	2.0	1	1.681
108.6273	4.1739999999999995	P_U	2.0	n/a	n/a	n/a	n/a	Phon/Phon_run-02/PM029.wav	n/a	0	n/a
112.8137	3.4539999999999997	P_C	1.0	2.0	0.295	1.0	0.856	Phon/Phon_run-02/ContS08.wav	2.0	0	0.295
116.2828	3.446	P_R	1.0	n/a	n/a	1.0	1.619	Phon/Phon_run-02/stereo_PR30.wav	1.0	1	1.369
119.7352	3.85	P_R	1.0	n/a	n/a	1.0	2.2359999999999998	Phon/Phon_run-02/stereo_PR07.wav	1.0	1	1.9860000000000002
123.588	3.438	P_U	2.0	n/a	n/a	2.0	1.368	Phon/Phon_run-02/stereo_PU02.wav	2.0	1	1.118
127.0406	3.915	P_C	1.0	n/a	n/a	1.0	1.008	Phon/Phon_run-02/ContS20.wav	1.0	1	1.758
130.9601	3.487	P_U	2.0	n/a	n/a	n/a	n/a	Phon/Phon_run-02/PM021.wav	n/a	0	n/a
134.46200000000002	3.965	P_C	1.0	n/a	n/a	1.0	1.556	Phon/Phon_run-02/ContS26.wav	1.0	1	2.306
138.4315	3.792	P_R	1.0	n/a	n/a	1.0	1.646	Phon/Phon_run-02/stereo_PR31.wav	1.0	1	1.396
142.2343	4.135	P_O	1.0	n/a	n/a	1.0	1.795	Phon/Phon_run-02/PC024.wav	1.0	1	1.545
146.3717	3.875	P_U	2.0	n/a	n/a	2.0	1.652	Phon/Phon_run-02/PM010.wav	2.0	1	1.402
150.2579	3.875	P_O	1.0	n/a	n/a	1.0	1.632	Phon/Phon_run-02/PC015.wav	1.0	1	1.382
154.144	4.245	P_C	1.0	n/a	n/a	1.0	1.266	Phon/Phon_run-02/ContS14.wav	1.0	1	2.016
158.3971	3.854	P_R	1.0	n/a	n/a	1.0	1.486	Phon/Phon_run-02/stereo_PR14.wav	1.0	1	1.236
162.2662	4.239	P_O	1.0	n/a	n/a	1.0	1.3730000000000002	Phon/Phon_run-02/PC008.wav	1.0	1	1.1230000000000002
166.5192	4.25	P_U	2.0	n/a	n/a	2.0	1.381	Phon/Phon_run-02/stereo_PU11.wav	2.0	1	1.131
170.7726	3.523	P_C	1.0	n/a	n/a	1.0	0.541	Phon/Phon_run-02/ContS18.wav	1.0	1	1.291
174.3085	3.429	P_O	1.0	n/a	n/a	n/a	n/a	Phon/Phon_run-02/PC006.wav	1.0	1	2.6639999999999997
177.7443	4.18	P_R	1.0	1.0	0.235	1.0	1.6980000000000002	Phon/Phon_run-02/stereo_PR32.wav	1.0	1	1.4480000000000002
181.9307	4.104	P_R	1.0	n/a	n/a	1.0	1.496	Phon/Phon_run-02/stereo_PR24.wav	1.0	1	1.246
