onset	duration	trial_type	correct	window1_response	window1_RT	window2_response	window2_RT	stim_file	calculated_response	calculated_accuracy	calculated_RT
1.0915	6.895	G_F	2.0	n/a	n/a	2.0	3.102	Gram/Gram_run-01/stereo_2MF57U2.wav	2.0	1	3.852
7.9964	7.175	G_F	2.0	n/a	n/a	2.0	2.9739999999999998	Gram/Gram_run-01/stereo_1MF15U3.wav	2.0	1	3.724
15.1851	6.5070000000000014	G_G	1.0	n/a	n/a	1.0	3.116	Gram/Gram_run-01/stereo_1MF11G2.wav	1.0	1	1.936
21.7065	6.505	G_C	1.0	n/a	n/a	1.0	0.376	Gram/Gram_run-01/CoM09d.wav	1.0	1	1.126
28.2123	6.9479999999999995	G_F	2.0	n/a	n/a	2.0	4.284	Gram/Gram_run-01/stereo_2MF68U4.wav	2.0	1	3.558
35.1675	5.541	G_P	2.0	n/a	n/a	2.0	3.477	Gram/Gram_run-01/stereo_1MP37U3.wav	2.0	1	2.4419999999999997
40.7217	5.9479999999999995	G_G	1.0	n/a	n/a	2.0	4.26	Gram/Gram_run-01/stereo_2MF50G1.wav	2.0	0	2.165
46.6761	6.013	G_F	2.0	n/a	n/a	2.0	4.023	Gram/Gram_run-01/stereo_1MF05U1.wav	2.0	1	3.421
52.6972	7.87	G_C	1.0	1.0	0.698	1.0	0.7859999999999999	Gram/Gram_run-01/CoM01l.wav	1.0	1	0.698
60.5705	6.4979999999999976	G_G	1.0	n/a	n/a	1.0	3.904	Gram/Gram_run-01/stereo_1MF23G4.wav	1.0	1	1.7229999999999999
67.0753	6.184	G_F	2.0	n/a	n/a	2.0	3.4939999999999998	Gram/Gram_run-01/stereo_2MF55U2.wav	2.0	1	4.244
73.264	6.83	G_C	1.0	n/a	n/a	1.0	0.052000000000000005	Gram/Gram_run-01/CoM10l.wav	1.0	1	0.802
80.1023	7.505	G_G	1.0	n/a	n/a	1.0	5.523	Gram/Gram_run-01/stereo_2MP96G4.wav	1.0	1	3.128
87.6086	7.1370000000000005	G_G	1.0	n/a	n/a	1.0	4.678999999999999	Gram/Gram_run-01/stereo_1MP47G4.wav	1.0	1	2.211999999999999
94.748	6.694	G_F	2.0	n/a	n/a	2.0	2.8510000000000004	Gram/Gram_run-01/stereo_2MF61U3.wav	2.0	1	3.6010000000000004
101.4529	5.39	G_C	1.0	n/a	n/a	1.0	0.175	Gram/Gram_run-01/CoM01d.wav	1.0	1	0.925
106.8569	6.5760000000000005	G_G	1.0	n/a	n/a	1.0	3.1489999999999996	Gram/Gram_run-01/stereo_1MP35G2.wav	1.0	1	2.145
113.4451	5.3389999999999995	G_F	2.0	n/a	n/a	1.0	4.165	Gram/Gram_run-01/stereo_2MF69U4.wav	1.0	0	3.4270000000000005
118.7989	7.94	G_C	1.0	n/a	n/a	1.0	0.237	Gram/Gram_run-01/CoM08l.wav	1.0	1	0.987
126.7476	6.006	G_P	2.0	n/a	n/a	2.0	4.262	Gram/Gram_run-01/stereo_1MP26U1.wav	2.0	1	2.2859999999999996
132.7683	8.422	G_F	2.0	n/a	n/a	2.0	3.661	Gram/Gram_run-01/stereo_1MF06U1.wav	2.0	1	3.066
141.1919	7.885	G_P	2.0	n/a	n/a	2.0	3.4019999999999997	Gram/Gram_run-01/stereo_2MP81U2.wav	2.0	1	2.517
149.082	6.1270000000000024	G_G	1.0	n/a	n/a	1.0	4.937	Gram/Gram_run-01/stereo_2MP83G2.wav	1.0	1	3.8770000000000007
155.2198	5.765	G_C	1.0	n/a	n/a	1.0	0.233	Gram/Gram_run-01/CoM02b.wav	1.0	1	0.983
160.9908	6.706	G_P	2.0	n/a	n/a	2.0	4.685	Gram/Gram_run-01/stereo_2MP93U4.wav	2.0	1	2.285
167.7098	6.61	G_P	2.0	n/a	n/a	2.0	4.595	Gram/Gram_run-01/stereo_1MP28U1.wav	2.0	1	2.4800000000000004
174.3313	6.63	G_C	1.0	n/a	n/a	1.0	0.08800000000000001	Gram/Gram_run-01/CoM04b.wav	1.0	1	0.838
180.9695	5.665	G_P	2.0	n/a	n/a	2.0	4.341	Gram/Gram_run-01/stereo_1MP27U1.wav	2.0	1	2.3390000000000004
186.6404	7.55	G_G	1.0	n/a	n/a	1.0	4.487	Gram/Gram_run-01/stereo_2MP77G1.wav	1.0	1	2.388
194.1961	6.51	G_C	1.0	1.0	0.731	1.0	0.807	Gram/Gram_run-01/CoM03e.wav	1.0	1	0.731
200.7177	6.98	G_P	2.0	n/a	n/a	2.0	4.246	Gram/Gram_run-01/stereo_2MP92U4.wav	2.0	1	1.8970000000000002
207.7062	7.047999999999999	G_G	1.0	n/a	n/a	2.0	3.574	Gram/Gram_run-01/stereo_1MF12G2.wav	2.0	0	2.54
214.7613	5.574	G_F	2.0	n/a	n/a	n/a	n/a	Gram/Gram_run-01/stereo_1MF04U1.wav	n/a	0	n/a
220.3488	5.67	G_C	1.0	n/a	n/a	1.0	0.192	Gram/Gram_run-01/CoM07d.wav	1.0	1	0.942
226.0205	6.6160000000000005	G_P	2.0	n/a	n/a	2.0	3.062	Gram/Gram_run-01/stereo_1MP39U3.wav	2.0	1	2.058
232.6421	5.695	G_P	2.0	n/a	n/a	2.0	3.3	Gram/Gram_run-01/stereo_2MP82U2.wav	2.0	1	2.379
238.3464	6.6270000000000024	G_F	2.0	n/a	n/a	2.0	2.6910000000000003	Gram/Gram_run-01/stereo_1MF13U3.wav	2.0	1	3.4410000000000003
244.9846	7.145	G_C	1.0	n/a	n/a	1.0	0.098	Gram/Gram_run-01/CoM08e.wav	1.0	1	0.848
252.1398	6.805	G_G	1.0	n/a	n/a	n/a	n/a	Gram/Gram_run-01/stereo_1MP41G3.wav	1.0	1	4.904
258.9458	7.519	G_P	2.0	1.0	0.155	2.0	3.7489999999999997	Gram/Gram_run-01/stereo_1MP38U3.wav	2.0	1	2.51
