onset	duration	trial_type	correct	window1_response	window1_RT	window2_response	window2_RT	stim_file	calculated_response	calculated_accuracy	calculated_RT
1.0934	7.632999999999999	G_P	2.0	n/a	n/a	2.0	3.8569999999999998	Gram/Gram_run-02/stereo_1MP45U4.wav	2.0	1	1.726
8.7323	7.315	G_F	2.0	n/a	n/a	2.0	4.001	Gram/Gram_run-02/stereo_1MF20U4.wav	2.0	1	3.291
16.0543	6.2829999999999995	G_P	2.0	n/a	n/a	2.0	3.487	Gram/Gram_run-02/stereo_1MP34U2.wav	2.0	1	2.395
22.3421	6.195	G_C	1.0	1.0	0.611	n/a	n/a	Gram/Gram_run-02/CoM06d.wav	1.0	1	0.611
28.5465	6.221	G_G	1.0	n/a	n/a	1.0	3.548	Gram/Gram_run-02/stereo_1MF02G1.wav	1.0	1	1.508
34.769	5.801	G_F	2.0	n/a	n/a	2.0	2.918	Gram/Gram_run-02/stereo_2MF64U3.wav	2.0	1	3.668
40.5743	6.78	G_C	1.0	1.0	0.522	n/a	n/a	Gram/Gram_run-02/CoM07l.wav	1.0	1	0.522
47.3625	6.084	G_F	2.0	n/a	n/a	2.0	3.125	Gram/Gram_run-02/stereo_2MF56U2.wav	2.0	1	3.875
53.4512	7.5470000000000015	G_F	2.0	n/a	n/a	1.0	4.176	Gram/Gram_run-02/stereo_1MF21U4.wav	1.0	0	3.425
61.0065	6.482	G_G	1.0	n/a	n/a	1.0	3.8080000000000003	Gram/Gram_run-02/stereo_1MF24G4.wav	1.0	1	1.447
67.4946	6.7810000000000015	G_P	2.0	n/a	n/a	2.0	3.9160000000000004	Gram/Gram_run-02/stereo_2MP76U1.wav	2.0	1	1.6540000000000004
74.2828	6.643	G_P	2.0	n/a	n/a	2.0	3.247	Gram/Gram_run-02/stereo_2MP80U2.wav	2.0	1	2.291
80.9376	7.69	G_C	1.0	1.0	0.418	n/a	n/a	Gram/Gram_run-02/CoM06e.wav	1.0	1	0.418
88.639	6.352	G_F	2.0	n/a	n/a	2.0	2.736	Gram/Gram_run-02/stereo_2MF63U3.wav	2.0	1	3.486
94.9947	5.801	G_G	1.0	n/a	n/a	1.0	3.59	Gram/Gram_run-02/stereo_1MF18G3.wav	1.0	1	2.207
100.8001	7.1129999999999995	G_P	2.0	n/a	n/a	1.0	4.078	Gram/Gram_run-02/stereo_1MP44U4.wav	1.0	0	1.721
107.9218	6.78	G_C	1.0	1.0	0.5329999999999999	n/a	n/a	Gram/Gram_run-02/CoM05b.wav	1.0	1	0.5329999999999999
114.7101	6.7360000000000015	G_F	2.0	n/a	n/a	2.0	3.515	Gram/Gram_run-02/stereo_2MF58U2.wav	2.0	1	4.265000000000001
121.4494	6.0889999999999995	G_P	2.0	n/a	n/a	2.0	3.617	Gram/Gram_run-02/stereo_2MP87U3.wav	2.0	1	2.4050000000000002
127.5529	7.6370000000000005	G_P	2.0	n/a	n/a	2.0	3.6189999999999998	Gram/Gram_run-02/stereo_2MP73U1.wav	2.0	1	1.592
135.1929	7.305	G_C	1.0	1.0	0.41600000000000004	n/a	n/a	Gram/Gram_run-02/CoM02l.wav	1.0	1	0.416
142.4994	5.983	G_G	1.0	n/a	n/a	1.0	2.9589999999999996	Gram/Gram_run-02/stereo_1MP42G3.wav	1.0	1	2.037
148.4871	5.36	G_P	2.0	n/a	n/a	2.0	3.141	Gram/Gram_run-02/stereo_1MP32U2.wav	2.0	1	2.135
153.8576	7.145	G_C	1.0	1.0	0.667	n/a	n/a	Gram/Gram_run-02/CoM09e.wav	1.0	1	0.667
161.0128	6.28	G_F	2.0	n/a	n/a	2.0	4.013	Gram/Gram_run-02/stereo_1MF19U4.wav	2.0	1	3.327
167.3005	6.63	G_C	1.0	1.0	0.7090000000000001	n/a	n/a	Gram/Gram_run-02/CoM07b.wav	1.0	1	0.7090000000000001
173.9386	7.195	G_G	1.0	n/a	n/a	1.0	3.325	Gram/Gram_run-02/stereo_2MP89G3.wav	1.0	1	1.987
181.1437	5.1739999999999995	G_F	2.0	n/a	n/a	2.0	2.3680000000000003	Gram/Gram_run-02/stereo_1MF07U2.wav	2.0	1	3.1180000000000003
186.3308	6.944	G_P	2.0	n/a	n/a	2.0	3.174	Gram/Gram_run-02/stereo_2MP88U3.wav	2.0	1	2.1310000000000002
193.2858	6.0889999999999995	G_G	1.0	n/a	n/a	1.0	2.865	Gram/Gram_run-02/stereo_2MF66G3.wav	1.0	1	1.4910000000000005
199.3896	6.5	G_C	1.0	1.0	0.478	n/a	n/a	Gram/Gram_run-02/CoM01e.wav	1.0	1	0.478
205.8946	6.43	G_P	2.0	n/a	n/a	2.0	4.251	Gram/Gram_run-02/stereo_1MP43U4.wav	2.0	1	1.9690000000000003
212.3325	6.19	G_G	1.0	n/a	n/a	1.0	3.6710000000000003	Gram/Gram_run-02/stereo_2MP84G2.wav	1.0	1	2.739
218.537	7.114	G_G	1.0	1.0	0.32799999999999996	2.0	4.2219999999999995	Gram/Gram_run-02/stereo_1MP29G1.wav	2.0	0	2.0340000000000003
225.6587	6.731	G_F	2.0	n/a	n/a	2.0	2.506	Gram/Gram_run-02/stereo_2MF53U1.wav	2.0	1	1.9349999999999996
232.3969	6.015	G_C	1.0	n/a	n/a	1.0	0.01	Gram/Gram_run-02/CoM02d.wav	1.0	1	0.76
238.4179	7.17	G_G	1.0	n/a	n/a	1.0	4.361000000000001	Gram/Gram_run-02/stereo_2MF71G4.wav	1.0	1	2.112000000000001
245.5909	5.33	G_C	1.0	1.0	0.6859999999999999	n/a	n/a	Gram/Gram_run-02/CoM06b.wav	1.0	1	0.6859999999999999
250.9316	6.9689999999999985	G_F	2.0	n/a	n/a	2.0	3.543	Gram/Gram_run-02/stereo_2MF54U1.wav	2.0	1	2.9730000000000003
257.9045	7.6	G_G	1.0	n/a	n/a	1.0	4.236000000000001	Gram/Gram_run-02/stereo_2MF49G1.wav	1.0	1	2.0470000000000015
