onset	duration	trial_type	correct	window1_response	window1_RT	window2_response	window2_RT	stim_file	calculated_response	calculated_accuracy	calculated_RT
1.084	3.5	P_R	1.0	n/a	n/a	1.0	1.525	Phon/Phon_run-02/stereo_PR20.wav	1.0	1	1.275
4.587	4.235	P_O	1.0	n/a	n/a	1.0	1.198	Phon/Phon_run-02/PC034.wav	1.0	1	0.948
8.824	3.375	P_R	1.0	n/a	n/a	1.0	1.072	Phon/Phon_run-02/stereo_PR13.wav	1.0	1	0.8220000000000001
12.21	3.474	P_C	1.0	n/a	n/a	1.0	0.496	Phon/Phon_run-02/ContS12.wav	1.0	1	1.246
15.696	3.875	P_U	2.0	n/a	n/a	2.0	1.4580000000000002	Phon/Phon_run-02/PM025.wav	2.0	1	1.2080000000000002
19.583	3.726	P_R	1.0	n/a	n/a	1.0	1.065	Phon/Phon_run-02/stereo_PR22.wav	1.0	1	0.815
23.31900000000001	3.451	P_O	1.0	n/a	n/a	1.0	1.22	Phon/Phon_run-02/PC014.wav	1.0	1	0.97
26.772	3.779	P_C	1.0	n/a	n/a	1.0	1.0659999999999998	Phon/Phon_run-02/ContS02.wav	1.0	1	1.8159999999999998
30.558000000000003	3.821	P_U	2.0	n/a	n/a	2.0	1.5919999999999999	Phon/Phon_run-02/stereo_PU18.wav	2.0	1	1.342
34.395	3.49	P_U	2.0	n/a	n/a	2.0	1.9780000000000002	Phon/Phon_run-02/stereo_PU12.wav	2.0	1	1.728
37.897	4.38	P_C	1.0	n/a	n/a	1.0	0.431	Phon/Phon_run-02/ContS32.wav	1.0	1	1.181
42.284	4.0969999999999995	P_R	1.0	n/a	n/a	1.0	1.311	Phon/Phon_run-02/stereo_PR16.wav	1.0	1	1.061
46.38800000000001	3.5	P_O	1.0	n/a	n/a	1.0	1.225	Phon/Phon_run-02/PC022.wav	1.0	1	0.9750000000000001
49.89	4.0760000000000005	P_R	1.0	n/a	n/a	1.0	1.222	Phon/Phon_run-02/stereo_PR08.wav	1.0	1	0.972
53.977	3.5	P_O	1.0	n/a	n/a	n/a	n/a	Phon/Phon_run-02/PC028.wav	n/a	0	n/a
57.48	3.5	P_U	2.0	n/a	n/a	2.0	1.893	Phon/Phon_run-02/stereo_PU27.wav	2.0	1	1.643
60.983000000000004	3.819	P_C	1.0	n/a	n/a	1.0	1.238	Phon/Phon_run-02/ContS06.wav	1.0	1	1.988
64.80199999999999	4.25	P_O	1.0	n/a	n/a	1.0	2.85	Phon/Phon_run-02/PC031.wav	1.0	1	2.6
69.056	3.662	P_C	1.0	n/a	n/a	1.0	1.8459999999999999	Phon/Phon_run-02/ContS36.wav	1.0	1	2.596
72.726	3.823	P_O	1.0	n/a	n/a	1.0	2.299	Phon/Phon_run-02/PC023.wav	1.0	1	2.049
76.562	4.323	P_C	1.0	n/a	n/a	1.0	0.95	Phon/Phon_run-02/ContS24.wav	1.0	1	1.7
80.899	3.865	P_U	2.0	n/a	n/a	2.0	1.3430000000000002	Phon/Phon_run-02/PM004.wav	2.0	1	1.0930000000000002
84.76899999999998	3.875	P_O	1.0	n/a	n/a	1.0	1.7	Phon/Phon_run-02/PC007.wav	1.0	1	1.45
88.655	4.25	P_U	2.0	n/a	n/a	2.0	2.969	Phon/Phon_run-02/PM011.wav	2.0	1	2.719
92.90799999999999	4.362	P_C	1.0	n/a	n/a	1.0	0.917	Phon/Phon_run-02/ContS30.wav	1.0	1	1.667
97.279	3.875	P_O	1.0	n/a	n/a	n/a	n/a	Phon/Phon_run-02/PC030.wav	2.0	0	2.906
101.165	3.3360000000000003	P_R	1.0	2.0	0.031	1.0	1.0070000000000001	Phon/Phon_run-02/stereo_PR05.wav	1.0	1	0.7569999999999999
104.501	4.113	P_U	2.0	n/a	n/a	2.0	1.288	Phon/Phon_run-02/stereo_PU01.wav	2.0	1	1.038
108.62100000000001	4.1739999999999995	P_U	2.0	n/a	n/a	2.0	2.2319999999999998	Phon/Phon_run-02/PM029.wav	2.0	1	1.9820000000000002
112.80799999999999	3.4539999999999997	P_C	1.0	n/a	n/a	1.0	0.55	Phon/Phon_run-02/ContS08.wav	1.0	1	1.3
116.277	3.446	P_R	1.0	n/a	n/a	1.0	2.13	Phon/Phon_run-02/stereo_PR30.wav	1.0	1	1.88
119.73	3.85	P_R	1.0	n/a	n/a	1.0	1.254	Phon/Phon_run-02/stereo_PR07.wav	1.0	1	1.004
123.583	3.438	P_U	2.0	n/a	n/a	2.0	1.578	Phon/Phon_run-02/stereo_PU02.wav	2.0	1	1.328
127.036	3.915	P_C	1.0	n/a	n/a	1.0	0.955	Phon/Phon_run-02/ContS20.wav	1.0	1	1.705
130.95600000000002	3.487	P_U	2.0	n/a	n/a	2.0	1.5290000000000001	Phon/Phon_run-02/PM021.wav	2.0	1	1.279
134.459	3.965	P_C	1.0	n/a	n/a	1.0	0.92	Phon/Phon_run-02/ContS26.wav	1.0	1	1.67
138.429	3.792	P_R	1.0	n/a	n/a	1.0	1.521	Phon/Phon_run-02/stereo_PR31.wav	1.0	1	1.271
142.232	4.135	P_O	1.0	n/a	n/a	1.0	0.992	Phon/Phon_run-02/PC024.wav	1.0	1	0.742
146.368	3.875	P_U	2.0	n/a	n/a	2.0	2.039	Phon/Phon_run-02/PM010.wav	2.0	1	1.7890000000000001
150.255	3.875	P_O	1.0	n/a	n/a	n/a	n/a	Phon/Phon_run-02/PC015.wav	n/a	0	n/a
154.141	4.245	P_C	1.0	n/a	n/a	1.0	2.053	Phon/Phon_run-02/ContS14.wav	1.0	1	2.803
158.395	3.854	P_R	1.0	n/a	n/a	1.0	2.359	Phon/Phon_run-02/stereo_PR14.wav	1.0	1	2.109
162.264	4.239	P_O	1.0	n/a	n/a	2.0	1.702	Phon/Phon_run-02/PC008.wav	2.0	0	1.452
166.518	4.25	P_U	2.0	n/a	n/a	2.0	1.6640000000000001	Phon/Phon_run-02/stereo_PU11.wav	2.0	1	1.414
170.771	3.523	P_C	1.0	n/a	n/a	1.0	0.759	Phon/Phon_run-02/ContS18.wav	1.0	1	1.509
174.30700000000004	3.429	P_O	1.0	n/a	n/a	2.0	1.6669999999999998	Phon/Phon_run-02/PC006.wav	2.0	0	1.4169999999999998
177.74400000000003	4.18	P_R	1.0	n/a	n/a	1.0	1.2109999999999999	Phon/Phon_run-02/stereo_PR32.wav	1.0	1	0.9610000000000001
181.93	4.104	P_R	1.0	n/a	n/a	1.0	1.239	Phon/Phon_run-02/stereo_PR24.wav	1.0	1	0.9890000000000001
