onset	duration	trial_type	correct	window1_response	window1_RT	window2_response	window2_RT	stim_file	calculated_response	calculated_accuracy	calculated_RT
1.068	4.2	S_U	2.0	n/a	n/a	2.0	1.9	Sem/Sem_run-01/stereo_1SU41A0.wav	2.0	1	1.65
5.271	3.596	S_C	1.0	n/a	n/a	1.0	0.5539999999999999	Sem/Sem_run-01/ContS29.wav	1.0	1	1.3039999999999998
8.874	3.425	S_U	2.0	n/a	n/a	2.0	1.403	Sem/Sem_run-01/stereo_2SU87A0.wav	2.0	1	1.153
12.31	3.933	S_H	1.0	n/a	n/a	1.0	1.629	Sem/Sem_run-01/stereo_1SH13A0.wav	1.0	1	1.379
16.246	4.323	S_H	1.0	n/a	n/a	1.0	1.165	Sem/Sem_run-01/stereo_1SH05A0.wav	1.0	1	0.915
20.583000000000002	4.073	S_C	1.0	n/a	n/a	1.0	1.218	Sem/Sem_run-01/ContS31.wav	1.0	1	1.968
24.669	3.869	S_L	1.0	n/a	n/a	1.0	1.635	Sem/Sem_run-01/stereo_2SL63A0.wav	1.0	1	1.385
28.539	3.75	S_L	1.0	n/a	n/a	1.0	1.942	Sem/Sem_run-01/stereo_1SL29A0.wav	1.0	1	1.692
32.291	4.3660000000000005	S_U	2.0	n/a	n/a	2.0	1.8840000000000001	Sem/Sem_run-01/stereo_2SU78A0.wav	2.0	1	1.634
36.662	3.3	S_L	1.0	n/a	n/a	1.0	1.2590000000000001	Sem/Sem_run-01/stereo_1SL17A0.wav	1.0	1	1.009
39.964	3.884	S_C	1.0	n/a	n/a	1.0	1.242	Sem/Sem_run-01/ContS05.wav	1.0	1	1.992
43.85	4.371	S_H	1.0	n/a	n/a	1.0	1.8980000000000001	Sem/Sem_run-01/stereo_2SH58A0.wav	1.0	1	1.648
48.236999999999995	4.329	S_L	1.0	n/a	n/a	1.0	1.383	Sem/Sem_run-01/stereo_2SL72A0.wav	1.0	1	1.133
52.574	3.94	S_H	1.0	n/a	n/a	1.0	1.281	Sem/Sem_run-01/stereo_2SH57A0.wav	1.0	1	1.031
56.527	4.2	S_U	2.0	n/a	n/a	2.0	1.7009999999999998	Sem/Sem_run-01/stereo_2SU83A0.wav	2.0	1	1.4509999999999998
60.73	3.474	S_C	1.0	n/a	n/a	1.0	1.225	Sem/Sem_run-01/ContS11.wav	1.0	1	1.975
64.21600000000001	4.271	S_L	1.0	n/a	n/a	2.0	1.652	Sem/Sem_run-01/stereo_1SL26A0.wav	2.0	0	1.402
68.502	3.91	S_L	1.0	n/a	n/a	1.0	1.626	Sem/Sem_run-01/stereo_1SL25A0.wav	1.0	1	1.376
72.422	4.479	S_C	1.0	n/a	n/a	1.0	1.58	Sem/Sem_run-01/ContS25.wav	1.0	1	2.33
76.90899999999998	3.378	S_U	2.0	n/a	n/a	2.0	1.837	Sem/Sem_run-01/stereo_2SU81A0.wav	2.0	1	1.587
80.295	3.42	S_L	1.0	n/a	n/a	1.0	1.756	Sem/Sem_run-01/stereo_1SL27A0.wav	1.0	1	1.506
83.73100000000002	4.3439999999999985	S_L	1.0	n/a	n/a	1.0	2.424	Sem/Sem_run-01/stereo_1SL30A0.wav	1.0	1	2.174
88.084	3.909	S_L	1.0	n/a	n/a	1.0	1.3259999999999998	Sem/Sem_run-01/stereo_2SL71A0.wav	1.0	1	1.0759999999999998
92.00399999999999	3.867	S_H	1.0	n/a	n/a	1.0	1.262	Sem/Sem_run-01/stereo_1SH04A0.wav	1.0	1	1.012
95.87299999999999	3.828	S_U	2.0	n/a	n/a	2.0	2.082	Sem/Sem_run-01/stereo_1SU37A0.wav	2.0	1	1.8319999999999999
99.709	4.565	S_C	1.0	n/a	n/a	1.0	1.412	Sem/Sem_run-01/ContS35.wav	1.0	1	2.162
104.28	3.3	S_U	2.0	n/a	n/a	2.0	1.6780000000000002	Sem/Sem_run-01/stereo_1SU35A0.wav	2.0	1	1.4280000000000002
107.58200000000001	3.477	S_L	1.0	n/a	n/a	2.0	1.969	Sem/Sem_run-01/stereo_2SL65A0.wav	2.0	0	1.719
111.068	3.83	S_H	1.0	n/a	n/a	1.0	1.9469999999999998	Sem/Sem_run-01/stereo_1SH07A0.wav	1.0	1	1.697
114.904	4.3439999999999985	S_C	1.0	n/a	n/a	1.0	1.262	Sem/Sem_run-01/ContS07.wav	1.0	1	2.012
119.258	3.5	S_H	1.0	n/a	n/a	1.0	1.921	Sem/Sem_run-01/stereo_1SH03A0.wav	1.0	1	1.671
122.76	3.919	S_U	2.0	n/a	n/a	2.0	1.834	Sem/Sem_run-01/stereo_1SU45A0.wav	2.0	1	1.584
126.68	3.5	S_H	1.0	n/a	n/a	1.0	1.756	Sem/Sem_run-01/stereo_1SH06A0.wav	1.0	1	1.506
130.183	3.392	S_L	1.0	n/a	n/a	n/a	n/a	Sem/Sem_run-01/stereo_2SL62A0.wav	n/a	0	n/a
133.585	3.54	S_C	1.0	n/a	n/a	1.0	2.366	Sem/Sem_run-01/ContS19.wav	1.0	1	3.116
137.138	4.4	S_H	1.0	n/a	n/a	2.0	0.9109999999999999	Sem/Sem_run-01/stereo_1SH15A0.wav	2.0	0	0.661
141.541	3.342	S_H	1.0	n/a	n/a	1.0	1.505	Sem/Sem_run-01/stereo_1SH11A0.wav	1.0	1	1.255
144.894	3.385	S_U	2.0	n/a	n/a	n/a	n/a	Sem/Sem_run-01/stereo_1SU44A0.wav	n/a	0	n/a
148.28	3.4160000000000004	S_H	1.0	n/a	n/a	1.0	1.516	Sem/Sem_run-01/stereo_2SH56A0.wav	1.0	1	1.266
151.69899999999996	3.849	S_U	2.0	n/a	n/a	2.0	1.4509999999999998	Sem/Sem_run-01/stereo_2SU82A0.wav	2.0	1	1.2009999999999998
155.55200000000005	3.934	S_C	1.0	n/a	n/a	1.0	0.757	Sem/Sem_run-01/ContS13.wav	1.0	1	1.5070000000000001
159.488	4.309	S_L	1.0	n/a	n/a	1.0	1.47	Sem/Sem_run-01/stereo_2SL64A0.wav	1.0	1	1.22
163.808	4.413	S_C	1.0	n/a	n/a	1.0	0.8340000000000001	Sem/Sem_run-01/ContS17.wav	1.0	1	1.584
168.22799999999995	4.2	S_U	2.0	n/a	n/a	2.0	1.8219999999999998	Sem/Sem_run-01/stereo_2SU90A0.wav	2.0	1	1.572
172.43200000000004	3.846	S_U	2.0	n/a	n/a	2.0	1.8159999999999998	Sem/Sem_run-01/stereo_2SU88A0.wav	2.0	1	1.566
176.28400000000005	3.3939999999999997	S_C	1.0	n/a	n/a	1.0	1.099	Sem/Sem_run-01/ContS01.wav	1.0	1	1.849
179.687	4.013	S_C	1.0	n/a	n/a	1.0	0.8759999999999999	Sem/Sem_run-01/ContS23.wav	1.0	1	1.626
183.707	4.227	S_H	1.0	n/a	n/a	1.0	1.567	Sem/Sem_run-01/stereo_1SH08A0.wav	1.0	1	1.317
