onset	duration	trial_type	correct	window1_response	window1_RT	window2_response	window2_RT	stim_file	calculated_response	calculated_accuracy	calculated_RT
1.0918	4.2	S_U	2.0	n/a	n/a	2.0	1.89	Sem/Sem_run-01/stereo_1SU41A0.wav	2.0	1	1.64
5.2953	3.596	S_C	1.0	n/a	n/a	1.0	0.068	Sem/Sem_run-01/ContS29.wav	1.0	1	0.8180000000000001
8.898	3.425	S_U	2.0	n/a	n/a	2.0	2.1830000000000003	Sem/Sem_run-01/stereo_2SU87A0.wav	2.0	1	1.9330000000000003
12.3338	3.933	S_H	1.0	n/a	n/a	2.0	2.783	Sem/Sem_run-01/stereo_1SH13A0.wav	2.0	0	2.533
16.2699	4.323	S_H	1.0	n/a	n/a	1.0	2.9019999999999997	Sem/Sem_run-01/stereo_1SH05A0.wav	1.0	1	2.652
20.6064	4.073	S_C	1.0	n/a	n/a	1.0	0.025	Sem/Sem_run-01/ContS31.wav	1.0	1	0.775
24.6927	3.869	S_L	1.0	n/a	n/a	1.0	1.197	Sem/Sem_run-01/stereo_2SL63A0.wav	1.0	1	0.9470000000000001
28.5634	3.75	S_L	1.0	n/a	n/a	2.0	1.247	Sem/Sem_run-01/stereo_1SL29A0.wav	2.0	0	0.9970000000000001
32.3161	4.3660000000000005	S_U	2.0	n/a	n/a	1.0	1.453	Sem/Sem_run-01/stereo_2SU78A0.wav	1.0	0	1.203
36.6859	3.3	S_L	1.0	n/a	n/a	1.0	1.847	Sem/Sem_run-01/stereo_1SL17A0.wav	1.0	1	1.597
39.9885	3.884	S_C	1.0	n/a	n/a	1.0	0.055	Sem/Sem_run-01/ContS05.wav	1.0	1	0.805
43.8755	4.371	S_H	1.0	n/a	n/a	1.0	1.357	Sem/Sem_run-01/stereo_2SH58A0.wav	1.0	1	1.107
48.2606	4.329	S_L	1.0	n/a	n/a	1.0	2.9789999999999996	Sem/Sem_run-01/stereo_2SL72A0.wav	1.0	1	2.729
52.5971	3.94	S_H	1.0	n/a	n/a	n/a	n/a	Sem/Sem_run-01/stereo_2SH57A0.wav	n/a	0	n/a
56.55	4.2	S_U	2.0	n/a	n/a	2.0	2.79	Sem/Sem_run-01/stereo_2SU83A0.wav	2.0	1	2.54
60.753	3.474	S_C	1.0	1.0	0.7390000000000001	1.0	0.9420000000000001	Sem/Sem_run-01/ContS11.wav	1.0	1	0.7390000000000001
64.2389	4.271	S_L	1.0	n/a	n/a	1.0	1.345	Sem/Sem_run-01/stereo_1SL26A0.wav	1.0	1	1.095
68.5248	3.91	S_L	1.0	n/a	n/a	1.0	1.2890000000000001	Sem/Sem_run-01/stereo_1SL25A0.wav	1.0	1	1.039
72.4443	4.479	S_C	1.0	1.0	0.6729999999999999	1.0	0.669	Sem/Sem_run-01/ContS25.wav	1.0	1	0.6729999999999999
76.9309	3.378	S_U	2.0	n/a	n/a	1.0	1.5519999999999998	Sem/Sem_run-01/stereo_2SU81A0.wav	1.0	0	1.3019999999999998
80.3167	3.42	S_L	1.0	n/a	n/a	n/a	n/a	Sem/Sem_run-01/stereo_1SL27A0.wav	n/a	0	n/a
83.7479	4.3439999999999985	S_L	1.0	n/a	n/a	1.0	2.904	Sem/Sem_run-01/stereo_1SL30A0.wav	1.0	1	2.654
88.1008	3.909	S_L	1.0	n/a	n/a	1.0	2.169	Sem/Sem_run-01/stereo_2SL71A0.wav	1.0	1	1.919
92.0205	3.867	S_H	1.0	n/a	n/a	n/a	n/a	Sem/Sem_run-01/stereo_1SH04A0.wav	n/a	0	n/a
95.8902	3.828	S_U	2.0	n/a	n/a	2.0	2.441	Sem/Sem_run-01/stereo_1SU37A0.wav	2.0	1	2.191
99.7264	4.565	S_C	1.0	1.0	0.7490000000000001	1.0	0.907	Sem/Sem_run-01/ContS35.wav	1.0	1	0.7490000000000001
104.2964	3.3	S_U	2.0	n/a	n/a	2.0	1.556	Sem/Sem_run-01/stereo_1SU35A0.wav	2.0	1	1.306
107.5986	3.477	S_L	1.0	n/a	n/a	1.0	1.8359999999999999	Sem/Sem_run-01/stereo_2SL65A0.wav	1.0	1	1.586
111.0845	3.83	S_H	1.0	n/a	n/a	1.0	2.485	Sem/Sem_run-01/stereo_1SH07A0.wav	1.0	1	2.235
114.9207	4.3439999999999985	S_C	1.0	n/a	n/a	1.0	0.012	Sem/Sem_run-01/ContS07.wav	1.0	1	0.762
119.2738	3.5	S_H	1.0	n/a	n/a	1.0	2.097	Sem/Sem_run-01/stereo_1SH03A0.wav	1.0	1	1.847
122.7765	3.919	S_U	2.0	n/a	n/a	2.0	2.658	Sem/Sem_run-01/stereo_1SU45A0.wav	2.0	1	2.408
126.697	3.5	S_H	1.0	n/a	n/a	1.0	1.3090000000000002	Sem/Sem_run-01/stereo_1SH06A0.wav	1.0	1	1.0590000000000002
130.1996	3.392	S_L	1.0	n/a	n/a	1.0	1.382	Sem/Sem_run-01/stereo_2SL62A0.wav	1.0	1	1.132
133.6021	3.54	S_C	1.0	n/a	n/a	1.0	0.11800000000000001	Sem/Sem_run-01/ContS19.wav	1.0	1	0.868
137.1547	4.4	S_H	1.0	n/a	n/a	1.0	1.208	Sem/Sem_run-01/stereo_1SH15A0.wav	1.0	1	0.958
141.5578	3.342	S_H	1.0	n/a	n/a	1.0	1.3459999999999999	Sem/Sem_run-01/stereo_1SH11A0.wav	1.0	1	1.096
144.9103	3.385	S_U	2.0	n/a	n/a	2.0	1.963	Sem/Sem_run-01/stereo_1SU44A0.wav	2.0	1	1.713
148.2972	3.4160000000000004	S_H	1.0	n/a	n/a	1.0	1.6540000000000001	Sem/Sem_run-01/stereo_2SH56A0.wav	1.0	1	1.404
151.7164	3.849	S_U	2.0	n/a	n/a	n/a	n/a	Sem/Sem_run-01/stereo_2SU82A0.wav	n/a	0	n/a
155.5691	3.934	S_C	1.0	n/a	n/a	1.0	0.364	Sem/Sem_run-01/ContS13.wav	1.0	1	1.1139999999999999
159.506	4.309	S_L	1.0	n/a	n/a	1.0	2.086	Sem/Sem_run-01/stereo_2SL64A0.wav	1.0	1	1.8359999999999999
163.8257	4.413	S_C	1.0	1.0	0.737	1.0	0.76	Sem/Sem_run-01/ContS17.wav	1.0	1	0.737
168.2456	4.2	S_U	2.0	n/a	n/a	2.0	2.234	Sem/Sem_run-01/stereo_2SU90A0.wav	2.0	1	1.984
172.4489	3.846	S_U	2.0	n/a	n/a	2.0	2.474	Sem/Sem_run-01/stereo_2SU88A0.wav	2.0	1	2.224
176.3017	3.3939999999999997	S_C	1.0	n/a	n/a	1.0	0.23399999999999999	Sem/Sem_run-01/ContS01.wav	1.0	1	0.984
179.7041	4.013	S_C	1.0	1.0	0.691	1.0	0.613	Sem/Sem_run-01/ContS23.wav	1.0	1	0.691
183.7237	4.227	S_H	1.0	n/a	n/a	1.0	1.734	Sem/Sem_run-01/stereo_1SH08A0.wav	1.0	1	1.484
