onset	duration	trial_type	correct	window1_response	window1_RT	window2_response	window2_RT	stim_file	calculated_response	calculated_accuracy	calculated_RT
1.085	3.4539999999999997	P_R	1.0	n/a	n/a	n/a	n/a	Phon/Phon_run-01/stereo_PR01.wav	n/a	0	n/a
4.5539999999999985	3.767	P_O	1.0	n/a	n/a	n/a	n/a	Phon/Phon_run-01/PC018.wav	n/a	0	n/a
8.323	3.391	P_O	1.0	n/a	n/a	2.0	1.32	Phon/Phon_run-01/PC009.wav	2.0	0	1.07
11.725999999999999	4.374	P_C	1.0	1.0	0.721	1.0	0.626	Phon/Phon_run-01/ContS11.wav	1.0	1	0.721
16.113	3.345	P_U	2.0	n/a	n/a	n/a	n/a	Phon/Phon_run-01/PM002.wav	n/a	0	n/a
19.465	4.4510000000000005	P_C	1.0	n/a	n/a	1.0	0.515	Phon/Phon_run-01/ContS21.wav	1.0	1	1.2650000000000001
23.919	4.382	P_O	1.0	n/a	n/a	1.0	1.631	Phon/Phon_run-01/PC005.wav	1.0	1	1.381
28.305	3.3	P_U	2.0	n/a	n/a	n/a	n/a	Phon/Phon_run-01/stereo_PU26.wav	n/a	0	n/a
31.608	4.324	P_C	1.0	n/a	n/a	n/a	n/a	Phon/Phon_run-01/ContS03.wav	n/a	0	n/a
35.945	4.378	P_R	1.0	n/a	n/a	1.0	1.284	Phon/Phon_run-01/stereo_PR29.wav	1.0	1	1.034
40.330999999999996	3.4810000000000003	P_U	2.0	n/a	n/a	1.0	2.102	Phon/Phon_run-01/PM020.wav	1.0	0	1.8519999999999999
43.817	4.393	P_O	1.0	n/a	n/a	2.0	1.6280000000000001	Phon/Phon_run-01/PC027.wav	2.0	0	1.378
48.221000000000004	4.4	P_R	1.0	n/a	n/a	n/a	n/a	Phon/Phon_run-01/stereo_PR11.wav	n/a	0	n/a
52.62399999999999	3.884	P_C	1.0	n/a	n/a	1.0	0.069	Phon/Phon_run-01/ContS05.wav	1.0	1	0.819
56.511	3.891	P_U	2.0	n/a	n/a	n/a	n/a	Phon/Phon_run-01/stereo_PU28.wav	n/a	0	n/a
60.41399999999999	4.4	P_O	1.0	n/a	n/a	n/a	n/a	Phon/Phon_run-01/PC013.wav	n/a	0	n/a
64.817	3.513	P_C	1.0	1.0	0.7490000000000001	1.0	0.525	Phon/Phon_run-01/ContS17.wav	1.0	1	0.7490000000000001
68.336	4.4	P_U	2.0	n/a	n/a	1.0	1.431	Phon/Phon_run-01/PM027.wav	1.0	0	1.181
72.74	4.4	P_O	1.0	n/a	n/a	2.0	1.099	Phon/Phon_run-01/PC021.wav	2.0	0	0.849
77.143	4.496	P_C	1.0	1.0	0.731	1.0	0.507	Phon/Phon_run-01/ContS29.wav	1.0	1	0.731
81.64699999999998	3.3680000000000003	P_R	1.0	n/a	n/a	n/a	n/a	Phon/Phon_run-01/stereo_PR25.wav	n/a	0	n/a
85.016	3.95	P_O	1.0	n/a	n/a	n/a	n/a	Phon/Phon_run-01/PC012.wav	n/a	0	n/a
88.969	3.95	P_U	2.0	n/a	n/a	1.0	1.5019999999999998	Phon/Phon_run-01/PM003.wav	1.0	0	1.2519999999999998
92.92200000000001	3.939	P_O	1.0	n/a	n/a	1.0	1.483	Phon/Phon_run-01/PC004.wav	1.0	1	1.233
96.875	3.59	P_C	1.0	1.0	0.695	1.0	0.53	Phon/Phon_run-01/ContS27.wav	1.0	1	0.695
100.478	4.296	P_U	2.0	n/a	n/a	n/a	n/a	Phon/Phon_run-01/stereo_PU21.wav	n/a	0	n/a
104.781	3.862	P_R	1.0	n/a	n/a	1.0	0.888	Phon/Phon_run-01/stereo_PR26.wav	1.0	1	0.638
108.65100000000001	3.95	P_O	1.0	n/a	n/a	1.0	1.5619999999999998	Phon/Phon_run-01/PC026.wav	1.0	1	1.3119999999999998
112.604	3.5	P_O	1.0	n/a	n/a	n/a	n/a	Phon/Phon_run-01/PC025.wav	n/a	0	n/a
116.10600000000001	4.013	P_C	1.0	n/a	n/a	1.0	0.38	Phon/Phon_run-01/ContS23.wav	1.0	1	1.13
120.126	3.792	P_R	1.0	n/a	n/a	1.0	1.526	Phon/Phon_run-01/stereo_PR18.wav	1.0	1	1.276
123.929	3.346	P_U	2.0	n/a	n/a	n/a	n/a	Phon/Phon_run-01/stereo_PU19.wav	n/a	0	n/a
127.28200000000001	3.891	P_R	1.0	n/a	n/a	n/a	n/a	Phon/Phon_run-01/stereo_PR03.wav	n/a	0	n/a
131.185	3.355	P_O	1.0	n/a	n/a	1.0	1.558	Phon/Phon_run-01/PC003.wav	1.0	1	1.308
134.554	3.951	P_C	1.0	n/a	n/a	1.0	0.10400000000000001	Phon/Phon_run-01/ContS15.wav	1.0	1	0.854
138.507	3.74	P_U	2.0	n/a	n/a	1.0	2.0709999999999997	Phon/Phon_run-01/stereo_PU16.wav	1.0	0	1.8210000000000002
142.26	3.95	P_R	1.0	n/a	n/a	n/a	n/a	Phon/Phon_run-01/stereo_PR10.wav	n/a	0	n/a
146.213	3.464	P_C	1.0	n/a	n/a	1.0	0.122	Phon/Phon_run-01/ContS09.wav	1.0	1	0.872
149.68200000000004	4.275	P_R	1.0	n/a	n/a	n/a	n/a	Phon/Phon_run-01/stereo_PR04.wav	n/a	0	n/a
153.969	3.95	P_U	2.0	n/a	n/a	1.0	0.3	Phon/Phon_run-01/PM023.wav	1.0	0	0.04999999999999999
157.922	4.4	P_U	2.0	n/a	n/a	n/a	n/a	Phon/Phon_run-01/PM001.wav	n/a	0	n/a
162.325	3.665	P_C	1.0	n/a	n/a	1.0	0.767	Phon/Phon_run-01/ContS35.wav	1.0	1	1.517
165.995	3.463	P_O	1.0	n/a	n/a	1.0	1.6	Phon/Phon_run-01/PC017.wav	1.0	1	1.35
169.46400000000003	4.332	P_R	1.0	n/a	n/a	n/a	n/a	Phon/Phon_run-01/stereo_PR19.wav	n/a	0	n/a
173.801	4.083	P_C	1.0	n/a	n/a	1.0	0.929	Phon/Phon_run-01/ContS33.wav	1.0	1	1.679
177.887	3.5	P_R	1.0	n/a	n/a	1.0	1.611	Phon/Phon_run-01/stereo_PR17.wav	1.0	1	1.361
181.39	4.2669999999999995	P_U	2.0	n/a	n/a	1.0	1.454	Phon/Phon_run-01/PM009.wav	1.0	0	1.204
185.66	3.4389999999999996	P_R	1.0	n/a	n/a	1.0	1.205	Phon/Phon_run-01/stereo_PR09.wav	1.0	1	0.9550000000000001
