onset	duration	trial_type	correct	window1_response	window1_RT	window2_response	window2_RT	stim_file	calculated_response	calculated_accuracy	calculated_RT
1.084	3.4539999999999997	P_R	1.0	n/a	n/a	n/a	n/a	Phon/Phon_run-01/stereo_PR01.wav	n/a	0	n/a
4.553	3.767	P_O	1.0	n/a	n/a	1.0	1.242	Phon/Phon_run-01/PC018.wav	1.0	1	0.992
8.323	3.391	P_O	1.0	n/a	n/a	2.0	1.1159999999999999	Phon/Phon_run-01/PC009.wav	2.0	0	0.8660000000000001
11.725	4.374	P_C	1.0	n/a	n/a	1.0	0.7859999999999999	Phon/Phon_run-01/ContS11.wav	1.0	1	1.536
16.112000000000002	3.345	P_U	2.0	n/a	n/a	1.0	1.786	Phon/Phon_run-01/PM002.wav	1.0	0	1.536
19.465	4.4510000000000005	P_C	1.0	1.0	0.733	1.0	0.579	Phon/Phon_run-01/ContS21.wav	1.0	1	0.733
23.91800000000001	4.382	P_O	1.0	n/a	n/a	1.0	1.072	Phon/Phon_run-01/PC005.wav	1.0	1	0.8220000000000001
28.305	3.3	P_U	2.0	n/a	n/a	2.0	2.033	Phon/Phon_run-01/stereo_PU26.wav	2.0	1	1.783
31.607	4.324	P_C	1.0	n/a	n/a	1.0	0.004	Phon/Phon_run-01/ContS03.wav	1.0	1	0.754
35.944	4.378	P_R	1.0	n/a	n/a	1.0	2.0980000000000003	Phon/Phon_run-01/stereo_PR29.wav	1.0	1	1.8480000000000003
40.330999999999996	3.4810000000000003	P_U	2.0	n/a	n/a	n/a	n/a	Phon/Phon_run-01/PM020.wav	n/a	0	n/a
43.817	4.393	P_O	1.0	n/a	n/a	1.0	1.8330000000000002	Phon/Phon_run-01/PC027.wav	1.0	1	1.583
48.22	4.4	P_R	1.0	n/a	n/a	1.0	2.477	Phon/Phon_run-01/stereo_PR11.wav	1.0	1	2.227
52.62300000000001	3.884	P_C	1.0	n/a	n/a	1.0	0.5760000000000001	Phon/Phon_run-01/ContS05.wav	1.0	1	1.326
56.51	3.891	P_U	2.0	n/a	n/a	1.0	2.095	Phon/Phon_run-01/stereo_PU28.wav	1.0	0	1.8450000000000002
60.413000000000004	4.4	P_O	1.0	n/a	n/a	1.0	1.436	Phon/Phon_run-01/PC013.wav	1.0	1	1.186
64.816	3.513	P_C	1.0	1.0	0.7170000000000001	1.0	0.489	Phon/Phon_run-01/ContS17.wav	1.0	1	0.7170000000000001
68.336	4.4	P_U	2.0	n/a	n/a	1.0	2.356	Phon/Phon_run-01/PM027.wav	1.0	0	2.106
72.73899999999998	4.4	P_O	1.0	n/a	n/a	n/a	n/a	Phon/Phon_run-01/PC021.wav	n/a	0	n/a
77.142	4.496	P_C	1.0	n/a	n/a	1.0	0.275	Phon/Phon_run-01/ContS29.wav	1.0	1	1.025
81.646	3.3680000000000003	P_R	1.0	n/a	n/a	n/a	n/a	Phon/Phon_run-01/stereo_PR25.wav	1.0	1	2.4090000000000003
85.015	3.95	P_O	1.0	1.0	0.040999999999999995	1.0	1.297	Phon/Phon_run-01/PC012.wav	1.0	1	1.047
88.96799999999998	3.95	P_U	2.0	n/a	n/a	1.0	2.4530000000000003	Phon/Phon_run-01/PM003.wav	1.0	0	2.2030000000000003
92.921	3.939	P_O	1.0	n/a	n/a	n/a	n/a	Phon/Phon_run-01/PC004.wav	n/a	0	n/a
96.874	3.59	P_C	1.0	n/a	n/a	1.0	1.0070000000000001	Phon/Phon_run-01/ContS27.wav	1.0	1	1.757
100.477	4.296	P_U	2.0	n/a	n/a	1.0	2.113	Phon/Phon_run-01/stereo_PU21.wav	1.0	0	1.863
104.78	3.862	P_R	1.0	n/a	n/a	1.0	1.2429999999999999	Phon/Phon_run-01/stereo_PR26.wav	1.0	1	0.9930000000000001
108.65	3.95	P_O	1.0	n/a	n/a	1.0	1.507	Phon/Phon_run-01/PC026.wav	1.0	1	1.257
112.603	3.5	P_O	1.0	n/a	n/a	n/a	n/a	Phon/Phon_run-01/PC025.wav	n/a	0	n/a
116.10600000000001	4.013	P_C	1.0	n/a	n/a	1.0	0.831	Phon/Phon_run-01/ContS23.wav	1.0	1	1.581
120.125	3.792	P_R	1.0	n/a	n/a	1.0	1.892	Phon/Phon_run-01/stereo_PR18.wav	1.0	1	1.642
123.928	3.346	P_U	2.0	n/a	n/a	n/a	n/a	Phon/Phon_run-01/stereo_PU19.wav	n/a	0	n/a
127.281	3.891	P_R	1.0	n/a	n/a	1.0	1.281	Phon/Phon_run-01/stereo_PR03.wav	1.0	1	1.031
131.184	3.355	P_O	1.0	n/a	n/a	n/a	n/a	Phon/Phon_run-01/PC003.wav	n/a	0	n/a
134.553	3.951	P_C	1.0	n/a	n/a	1.0	0.37200000000000005	Phon/Phon_run-01/ContS15.wav	1.0	1	1.122
138.506	3.74	P_U	2.0	n/a	n/a	1.0	2.3569999999999998	Phon/Phon_run-01/stereo_PU16.wav	1.0	0	2.107
142.259	3.95	P_R	1.0	n/a	n/a	1.0	1.821	Phon/Phon_run-01/stereo_PR10.wav	1.0	1	1.571
146.21200000000005	3.464	P_C	1.0	n/a	n/a	1.0	0.568	Phon/Phon_run-01/ContS09.wav	1.0	1	1.318
149.68200000000004	4.275	P_R	1.0	n/a	n/a	1.0	1.6969999999999998	Phon/Phon_run-01/stereo_PR04.wav	1.0	1	1.4469999999999998
153.968	3.95	P_U	2.0	n/a	n/a	1.0	2.523	Phon/Phon_run-01/PM023.wav	1.0	0	2.273
157.921	4.4	P_U	2.0	n/a	n/a	2.0	2.907	Phon/Phon_run-01/PM001.wav	2.0	1	2.657
162.325	3.665	P_C	1.0	n/a	n/a	1.0	0.7879999999999999	Phon/Phon_run-01/ContS35.wav	1.0	1	1.5379999999999998
165.99400000000003	3.463	P_O	1.0	n/a	n/a	2.0	1.966	Phon/Phon_run-01/PC017.wav	2.0	0	1.716
169.463	4.332	P_R	1.0	n/a	n/a	1.0	1.681	Phon/Phon_run-01/stereo_PR19.wav	1.0	1	1.431
173.8	4.083	P_C	1.0	n/a	n/a	1.0	0.278	Phon/Phon_run-01/ContS33.wav	1.0	1	1.028
177.887	3.5	P_R	1.0	n/a	n/a	1.0	1.906	Phon/Phon_run-01/stereo_PR17.wav	1.0	1	1.656
181.389	4.2669999999999995	P_U	2.0	n/a	n/a	n/a	n/a	Phon/Phon_run-01/PM009.wav	n/a	0	n/a
185.65900000000002	3.4389999999999996	P_R	1.0	n/a	n/a	1.0	1.4969999999999999	Phon/Phon_run-01/stereo_PR09.wav	1.0	1	1.247
