onset	duration	trial_type	correct	window1_response	window1_RT	window2_response	window2_RT	stim_file	calculated_response	calculated_accuracy	calculated_RT
1.085	7.632999999999999	G_P	2.0	n/a	n/a	2.0	4.111000000000001	Gram/Gram_run-02/stereo_1MP45U4.wav	2.0	1	1.9800000000000013
8.725	7.315	G_F	2.0	n/a	n/a	2.0	4.49	Gram/Gram_run-02/stereo_1MF20U4.wav	2.0	1	3.78
16.049	6.2829999999999995	G_P	2.0	n/a	n/a	2.0	3.5010000000000003	Gram/Gram_run-02/stereo_1MP34U2.wav	2.0	1	2.4090000000000003
22.338	6.195	G_C	1.0	n/a	n/a	1.0	2.01	Gram/Gram_run-02/CoM06d.wav	1.0	1	2.76
28.544	6.221	G_G	1.0	n/a	n/a	2.0	4.715	Gram/Gram_run-02/stereo_1MF02G1.wav	2.0	0	2.675
34.766999999999996	5.801	G_F	2.0	n/a	n/a	2.0	3.609	Gram/Gram_run-02/stereo_2MF64U3.wav	2.0	1	4.359
40.573	6.78	G_C	1.0	n/a	n/a	1.0	0.8320000000000001	Gram/Gram_run-02/CoM07l.wav	1.0	1	1.582
47.363	6.084	G_F	2.0	n/a	n/a	2.0	2.803	Gram/Gram_run-02/stereo_2MF56U2.wav	2.0	1	3.553
53.452	7.5470000000000015	G_F	2.0	n/a	n/a	2.0	4.3919999999999995	Gram/Gram_run-02/stereo_1MF21U4.wav	2.0	1	3.641
61.00899999999999	6.482	G_G	1.0	n/a	n/a	n/a	n/a	Gram/Gram_run-02/stereo_1MF24G4.wav	n/a	0	n/a
67.499	6.7810000000000015	G_P	2.0	n/a	n/a	2.0	4.617	Gram/Gram_run-02/stereo_2MP76U1.wav	2.0	1	2.3550000000000004
74.289	6.643	G_P	2.0	n/a	n/a	2.0	3.45	Gram/Gram_run-02/stereo_2MP80U2.wav	2.0	1	2.494
80.946	7.69	G_C	1.0	n/a	n/a	2.0	0.9159999999999999	Gram/Gram_run-02/CoM06e.wav	2.0	0	1.666
88.63600000000002	6.352	G_F	2.0	n/a	n/a	2.0	4.301	Gram/Gram_run-02/stereo_2MF63U3.wav	2.0	1	5.051
94.993	5.801	G_G	1.0	n/a	n/a	1.0	3.2310000000000003	Gram/Gram_run-02/stereo_1MF18G3.wav	1.0	1	1.8480000000000003
100.79799999999999	7.1129999999999995	G_P	2.0	n/a	n/a	2.0	4.175	Gram/Gram_run-02/stereo_1MP44U4.wav	2.0	1	1.8179999999999996
107.92200000000001	6.78	G_C	1.0	n/a	n/a	1.0	1.999	Gram/Gram_run-02/CoM05b.wav	1.0	1	2.749
114.712	6.7360000000000015	G_F	2.0	n/a	n/a	1.0	3.594	Gram/Gram_run-02/stereo_2MF58U2.wav	1.0	0	4.343999999999999
121.45200000000001	6.0889999999999995	G_P	2.0	n/a	n/a	2.0	3.21	Gram/Gram_run-02/stereo_2MP87U3.wav	2.0	1	1.998
127.541	7.637	G_P	2.0	n/a	n/a	2.0	4.343	Gram/Gram_run-02/stereo_2MP73U1.wav	2.0	1	2.316
135.18200000000002	7.305	G_C	1.0	n/a	n/a	1.0	0.722	Gram/Gram_run-02/CoM02l.wav	1.0	1	1.472
142.489	5.983	G_G	1.0	n/a	n/a	2.0	3.2289999999999996	Gram/Gram_run-02/stereo_1MP42G3.wav	2.0	0	2.307
148.47799999999995	5.36	G_P	2.0	n/a	n/a	2.0	3.5069999999999997	Gram/Gram_run-02/stereo_1MP32U2.wav	2.0	1	2.501
153.85	7.145	G_C	1.0	n/a	n/a	1.0	0.983	Gram/Gram_run-02/CoM09e.wav	1.0	1	1.733
161.007	6.28	G_F	2.0	n/a	n/a	2.0	4.796	Gram/Gram_run-02/stereo_1MF19U4.wav	2.0	1	4.11
167.296	6.63	G_C	1.0	n/a	n/a	1.0	0.872	Gram/Gram_run-02/CoM07b.wav	1.0	1	1.6219999999999999
173.93599999999995	7.195	G_G	1.0	n/a	n/a	2.0	4.186	Gram/Gram_run-02/stereo_2MP89G3.wav	2.0	0	2.848
181.143	5.1739999999999995	G_F	2.0	n/a	n/a	n/a	n/a	Gram/Gram_run-02/stereo_1MF07U2.wav	2.0	1	5.186999999999999
186.332	6.944	G_P	2.0	2.0	0.013000000000000001	2.0	3.032	Gram/Gram_run-02/stereo_2MP88U3.wav	2.0	1	1.989
193.28799999999998	6.0889999999999995	G_G	1.0	n/a	n/a	2.0	3.786	Gram/Gram_run-02/stereo_2MF66G3.wav	2.0	0	2.4120000000000004
199.378	6.5	G_C	1.0	n/a	n/a	1.0	1.6159999999999999	Gram/Gram_run-02/CoM01e.wav	1.0	1	2.366
205.88400000000001	6.43	G_P	2.0	n/a	n/a	1.0	4.374	Gram/Gram_run-02/stereo_1MP43U4.wav	1.0	0	2.0919999999999996
212.324	6.19	G_G	1.0	n/a	n/a	2.0	3.2569999999999997	Gram/Gram_run-02/stereo_2MP84G2.wav	2.0	0	2.325
218.53	7.114	G_G	1.0	n/a	n/a	1.0	4.398	Gram/Gram_run-02/stereo_1MP29G1.wav	1.0	1	2.2099999999999995
225.653	6.731	G_F	2.0	n/a	n/a	2.0	5.048	Gram/Gram_run-02/stereo_2MF53U1.wav	2.0	1	4.477
232.393	6.015	G_C	1.0	n/a	n/a	1.0	1.784	Gram/Gram_run-02/CoM02d.wav	1.0	1	2.534
238.416	7.17	G_G	1.0	n/a	n/a	2.0	4.832	Gram/Gram_run-02/stereo_2MF71G4.wav	2.0	0	2.5829999999999993
245.58900000000003	5.33	G_C	1.0	n/a	n/a	1.0	1.506	Gram/Gram_run-02/CoM06b.wav	1.0	1	2.2560000000000002
250.928	6.9689999999999985	G_F	2.0	n/a	n/a	2.0	4.717	Gram/Gram_run-02/stereo_2MF54U1.wav	2.0	1	4.147
257.901	7.6	G_G	1.0	n/a	n/a	2.0	4.297	Gram/Gram_run-02/stereo_2MF49G1.wav	2.0	0	2.1079999999999997
