onset	duration	trial_type	correct	window1_response	window1_RT	window2_response	window2_RT	stim_file	calculated_response	calculated_accuracy	calculated_RT
1.0924	3.5	P_R	1.0	n/a	n/a	1.0	1.6669999999999998	Phon/Phon_run-02/stereo_PR20.wav	1.0	1	1.4169999999999998
4.595	4.235	P_O	1.0	n/a	n/a	1.0	1.298	Phon/Phon_run-02/PC034.wav	1.0	1	1.048
8.8325	3.375	P_R	1.0	n/a	n/a	1.0	1.5219999999999998	Phon/Phon_run-02/stereo_PR13.wav	1.0	1	1.2719999999999998
12.2183	3.474	P_C	1.0	n/a	n/a	1.0	0.41	Phon/Phon_run-02/ContS12.wav	1.0	1	1.16
15.7041	3.875	P_U	2.0	n/a	n/a	2.0	1.024	Phon/Phon_run-02/PM025.wav	2.0	1	0.774
19.5903	3.726	P_R	1.0	n/a	n/a	1.0	1.526	Phon/Phon_run-02/stereo_PR22.wav	1.0	1	1.276
23.3263	3.451	P_O	1.0	n/a	n/a	2.0	1.59	Phon/Phon_run-02/PC014.wav	2.0	0	1.34
26.7799	3.779	P_C	1.0	n/a	n/a	1.0	0.467	Phon/Phon_run-02/ContS02.wav	1.0	1	1.217
30.566	3.821	P_U	2.0	n/a	n/a	2.0	1.238	Phon/Phon_run-02/stereo_PU18.wav	2.0	1	0.988
34.402	3.49	P_U	2.0	n/a	n/a	n/a	n/a	Phon/Phon_run-02/stereo_PU12.wav	n/a	0	n/a
37.9046	4.38	P_C	1.0	n/a	n/a	1.0	0.303	Phon/Phon_run-02/ContS32.wav	1.0	1	1.053
42.291000000000004	4.0969999999999995	P_R	1.0	n/a	n/a	1.0	1.443	Phon/Phon_run-02/stereo_PR16.wav	1.0	1	1.193
46.394	3.5	P_O	1.0	n/a	n/a	2.0	1.235	Phon/Phon_run-02/PC022.wav	2.0	0	0.9850000000000001
49.8966	4.0760000000000005	P_R	1.0	n/a	n/a	1.0	1.402	Phon/Phon_run-02/stereo_PR08.wav	1.0	1	1.152
53.983000000000004	3.5	P_O	1.0	n/a	n/a	1.0	1.433	Phon/Phon_run-02/PC028.wav	1.0	1	1.183
57.4856	3.5	P_U	2.0	n/a	n/a	2.0	1.31	Phon/Phon_run-02/stereo_PU27.wav	2.0	1	1.06
60.9881	3.819	P_C	1.0	n/a	n/a	1.0	0.426	Phon/Phon_run-02/ContS06.wav	1.0	1	1.176
64.8086	4.25	P_O	1.0	n/a	n/a	1.0	1.334	Phon/Phon_run-02/PC031.wav	1.0	1	1.084
69.062	3.662	P_C	1.0	n/a	n/a	1.0	0.18600000000000003	Phon/Phon_run-02/ContS36.wav	1.0	1	0.936
72.7312	3.823	P_O	1.0	n/a	n/a	2.0	1.347	Phon/Phon_run-02/PC023.wav	2.0	0	1.097
76.5674	4.323	P_C	1.0	1.0	0.713	1.0	0.607	Phon/Phon_run-02/ContS24.wav	1.0	1	0.713
80.9038	3.865	P_U	2.0	n/a	n/a	2.0	1.202	Phon/Phon_run-02/PM004.wav	2.0	1	0.952
84.7733	3.875	P_O	1.0	n/a	n/a	1.0	1.355	Phon/Phon_run-02/PC007.wav	1.0	1	1.105
88.6594	4.25	P_U	2.0	n/a	n/a	n/a	n/a	Phon/Phon_run-02/PM011.wav	n/a	0	n/a
92.9126	4.362	P_C	1.0	n/a	n/a	1.0	0.004	Phon/Phon_run-02/ContS30.wav	1.0	1	0.754
97.2825	3.875	P_O	1.0	n/a	n/a	1.0	1.61	Phon/Phon_run-02/PC030.wav	1.0	1	1.36
101.1687	3.3360000000000003	P_R	1.0	n/a	n/a	2.0	1.6780000000000002	Phon/Phon_run-02/stereo_PR05.wav	2.0	0	1.4280000000000002
104.5077	4.113	P_U	2.0	n/a	n/a	2.0	1.7830000000000001	Phon/Phon_run-02/stereo_PU01.wav	2.0	1	1.533
108.6273	4.1739999999999995	P_U	2.0	n/a	n/a	1.0	1.95	Phon/Phon_run-02/PM029.wav	1.0	0	1.7
112.8137	3.4539999999999997	P_C	1.0	n/a	n/a	1.0	0.177	Phon/Phon_run-02/ContS08.wav	1.0	1	0.927
116.2828	3.446	P_R	1.0	n/a	n/a	1.0	1.517	Phon/Phon_run-02/stereo_PR30.wav	1.0	1	1.267
119.7352	3.85	P_R	1.0	n/a	n/a	2.0	1.6269999999999998	Phon/Phon_run-02/stereo_PR07.wav	2.0	0	1.3769999999999998
123.588	3.438	P_U	2.0	n/a	n/a	2.0	1.247	Phon/Phon_run-02/stereo_PU02.wav	2.0	1	0.9970000000000001
127.0406	3.915	P_C	1.0	n/a	n/a	1.0	0.063	Phon/Phon_run-02/ContS20.wav	1.0	1	0.813
130.9601	3.487	P_U	2.0	n/a	n/a	2.0	1.334	Phon/Phon_run-02/PM021.wav	2.0	1	1.084
134.46200000000002	3.965	P_C	1.0	n/a	n/a	1.0	0.18899999999999997	Phon/Phon_run-02/ContS26.wav	1.0	1	0.9390000000000001
138.4315	3.792	P_R	1.0	n/a	n/a	2.0	1.547	Phon/Phon_run-02/stereo_PR31.wav	2.0	0	1.297
142.2343	4.135	P_O	1.0	n/a	n/a	1.0	1.587	Phon/Phon_run-02/PC024.wav	1.0	1	1.337
146.3717	3.875	P_U	2.0	n/a	n/a	2.0	1.449	Phon/Phon_run-02/PM010.wav	2.0	1	1.199
150.2579	3.875	P_O	1.0	n/a	n/a	1.0	1.6569999999999998	Phon/Phon_run-02/PC015.wav	1.0	1	1.4069999999999998
154.144	4.245	P_C	1.0	n/a	n/a	1.0	0.748	Phon/Phon_run-02/ContS14.wav	1.0	1	1.498
158.3971	3.854	P_R	1.0	n/a	n/a	1.0	1.58	Phon/Phon_run-02/stereo_PR14.wav	1.0	1	1.33
162.2662	4.239	P_O	1.0	n/a	n/a	1.0	1.234	Phon/Phon_run-02/PC008.wav	1.0	1	0.984
166.5192	4.25	P_U	2.0	n/a	n/a	2.0	1.3980000000000001	Phon/Phon_run-02/stereo_PU11.wav	2.0	1	1.148
170.7726	3.523	P_C	1.0	n/a	n/a	1.0	0.051	Phon/Phon_run-02/ContS18.wav	1.0	1	0.801
174.3085	3.429	P_O	1.0	n/a	n/a	1.0	1.932	Phon/Phon_run-02/PC006.wav	1.0	1	1.682
177.7443	4.18	P_R	1.0	n/a	n/a	1.0	2.371	Phon/Phon_run-02/stereo_PR32.wav	1.0	1	2.121
181.9307	4.104	P_R	1.0	n/a	n/a	2.0	1.454	Phon/Phon_run-02/stereo_PR24.wav	2.0	0	1.204
