onset	duration	trial_type	correct	window1_response	window1_RT	window2_response	window2_RT	stim_file	calculated_response	calculated_accuracy	calculated_RT
1.0925	3.4539999999999997	P_R	1.0	n/a	n/a	1.0	1.749	Phon/Phon_run-01/stereo_PR01.wav	1.0	1	1.499
4.5615	3.767	P_O	1.0	n/a	n/a	1.0	1.188	Phon/Phon_run-01/PC018.wav	1.0	1	0.938
8.3317	3.391	P_O	1.0	n/a	n/a	1.0	1.042	Phon/Phon_run-01/PC009.wav	1.0	1	0.792
11.7341	4.374	P_C	1.0	n/a	n/a	1.0	0.141	Phon/Phon_run-01/ContS11.wav	1.0	1	0.891
16.1207	3.345	P_U	2.0	n/a	n/a	2.0	1.169	Phon/Phon_run-01/PM002.wav	2.0	1	0.919
19.473	4.4510000000000005	P_C	1.0	n/a	n/a	1.0	0.6459999999999999	Phon/Phon_run-01/ContS21.wav	1.0	1	1.396
23.9275	4.382	P_O	1.0	n/a	n/a	1.0	1.291	Phon/Phon_run-01/PC005.wav	1.0	1	1.041
28.314	3.3	P_U	2.0	n/a	n/a	2.0	1.339	Phon/Phon_run-01/stereo_PU26.wav	2.0	1	1.089
31.6165	4.324	P_C	1.0	n/a	n/a	1.0	0.718	Phon/Phon_run-01/ContS03.wav	1.0	1	1.468
35.9529	4.378	P_R	1.0	n/a	n/a	1.0	1.4680000000000002	Phon/Phon_run-01/stereo_PR29.wav	1.0	1	1.2180000000000002
40.3393	3.4810000000000003	P_U	2.0	n/a	n/a	2.0	1.03	Phon/Phon_run-01/PM020.wav	2.0	1	0.78
43.8252	4.393	P_O	1.0	n/a	n/a	1.0	1.113	Phon/Phon_run-01/PC027.wav	1.0	1	0.863
48.2284	4.4	P_R	1.0	n/a	n/a	2.0	1.255	Phon/Phon_run-01/stereo_PR11.wav	2.0	0	1.005
52.6316	3.884	P_C	1.0	n/a	n/a	1.0	0.083	Phon/Phon_run-01/ContS05.wav	1.0	1	0.833
56.5186	3.891	P_U	2.0	n/a	n/a	2.0	1.821	Phon/Phon_run-01/stereo_PU28.wav	2.0	1	1.571
60.4213	4.4	P_O	1.0	n/a	n/a	1.0	1.682	Phon/Phon_run-01/PC013.wav	1.0	1	1.432
64.8247	3.513	P_C	1.0	n/a	n/a	1.0	0.42	Phon/Phon_run-01/ContS17.wav	1.0	1	1.17
68.3439	4.4	P_U	2.0	n/a	n/a	2.0	1.6680000000000001	Phon/Phon_run-01/PM027.wav	2.0	1	1.418
72.7471	4.4	P_O	1.0	n/a	n/a	n/a	n/a	Phon/Phon_run-01/PC021.wav	n/a	0	n/a
77.1504	4.496	P_C	1.0	n/a	n/a	1.0	0.517	Phon/Phon_run-01/ContS29.wav	1.0	1	1.267
81.6536	3.3680000000000003	P_R	1.0	n/a	n/a	n/a	n/a	Phon/Phon_run-01/stereo_PR25.wav	2.0	0	2.462
85.0239	3.95	P_O	1.0	2.0	0.094	2.0	2.23	Phon/Phon_run-01/PC012.wav	2.0	0	1.98
88.9768	3.95	P_U	2.0	n/a	n/a	1.0	1.546	Phon/Phon_run-01/PM003.wav	1.0	0	1.296
92.9297	3.939	P_O	1.0	n/a	n/a	1.0	1.515	Phon/Phon_run-01/PC004.wav	1.0	1	1.265
96.8826	3.59	P_C	1.0	n/a	n/a	1.0	0.5820000000000001	Phon/Phon_run-01/ContS27.wav	1.0	1	1.332
100.4851	4.296	P_U	2.0	n/a	n/a	2.0	1.4780000000000002	Phon/Phon_run-01/stereo_PU21.wav	2.0	1	1.2280000000000002
104.7882	3.862	P_R	1.0	n/a	n/a	2.0	2.405	Phon/Phon_run-01/stereo_PR26.wav	2.0	0	2.155
108.6576	3.95	P_O	1.0	n/a	n/a	1.0	1.465	Phon/Phon_run-01/PC026.wav	1.0	1	1.215
112.6107	3.5	P_O	1.0	n/a	n/a	2.0	0.879	Phon/Phon_run-01/PC025.wav	2.0	0	0.629
116.1133	4.013	P_C	1.0	n/a	n/a	1.0	0.61	Phon/Phon_run-01/ContS23.wav	1.0	1	1.3599999999999999
120.1329	3.792	P_R	1.0	n/a	n/a	2.0	1.73	Phon/Phon_run-01/stereo_PR18.wav	2.0	0	1.48
123.9359	3.346	P_U	2.0	n/a	n/a	2.0	1.53	Phon/Phon_run-01/stereo_PU19.wav	2.0	1	1.28
127.2885	3.891	P_R	1.0	n/a	n/a	1.0	1.0859999999999999	Phon/Phon_run-01/stereo_PR03.wav	1.0	1	0.8360000000000001
131.1913	3.355	P_O	1.0	n/a	n/a	2.0	0.91	Phon/Phon_run-01/PC003.wav	2.0	0	0.66
134.5604	3.951	P_C	1.0	n/a	n/a	1.0	0.74	Phon/Phon_run-01/ContS15.wav	1.0	1	1.49
138.5144	3.74	P_U	2.0	n/a	n/a	2.0	1.3769999999999998	Phon/Phon_run-01/stereo_PU16.wav	2.0	1	1.1269999999999998
142.2671	3.95	P_R	1.0	n/a	n/a	1.0	1.643	Phon/Phon_run-01/stereo_PR10.wav	1.0	1	1.393
146.22	3.464	P_C	1.0	n/a	n/a	n/a	n/a	Phon/Phon_run-01/ContS09.wav	n/a	0	n/a
149.6892	4.275	P_R	1.0	n/a	n/a	1.0	1.485	Phon/Phon_run-01/stereo_PR04.wav	1.0	1	1.235
153.9756	3.95	P_U	2.0	n/a	n/a	2.0	1.534	Phon/Phon_run-01/PM023.wav	2.0	1	1.284
157.9284	4.4	P_U	2.0	n/a	n/a	2.0	1.672	Phon/Phon_run-01/PM001.wav	2.0	1	1.422
162.3319	3.665	P_C	1.0	n/a	n/a	1.0	0.515	Phon/Phon_run-01/ContS35.wav	1.0	1	1.2650000000000001
166.0011	3.463	P_O	1.0	n/a	n/a	2.0	1.7369999999999999	Phon/Phon_run-01/PC017.wav	2.0	0	1.487
169.4703	4.332	P_R	1.0	n/a	n/a	1.0	1.861	Phon/Phon_run-01/stereo_PR19.wav	1.0	1	1.611
173.8067	4.083	P_C	1.0	n/a	n/a	1.0	0.433	Phon/Phon_run-01/ContS33.wav	1.0	1	1.183
177.893	3.5	P_R	1.0	n/a	n/a	1.0	1.839	Phon/Phon_run-01/stereo_PR17.wav	1.0	1	1.589
181.3956	4.2669999999999995	P_U	2.0	n/a	n/a	2.0	1.126	Phon/Phon_run-01/PM009.wav	2.0	1	0.8759999999999999
185.6658	3.4389999999999996	P_R	1.0	n/a	n/a	2.0	1.5230000000000001	Phon/Phon_run-01/stereo_PR09.wav	2.0	0	1.273
