onset	duration	trial_type	correct	window1_response	window1_RT	window2_response	window2_RT	stim_file	calculated_response	calculated_accuracy	calculated_RT
1.084	6.343	SP_S	1.0	n/a	n/a	1.0	4.338	Plaus/Plaus_run-02/stereo_PC37.wav	1.0	1	2.177
7.439	6.345	SP_W	1.0	n/a	n/a	1.0	3.533	Plaus/Plaus_run-02/stereo_PW74.wav	1.0	1	1.564
13.794	6.095	SP_C	1.0	n/a	n/a	1.0	0.155	Plaus/Plaus_run-02/CoM10d.wav	1.0	1	0.905
19.898	6.401	SP_I	2.0	n/a	n/a	2.0	3.0660000000000003	Plaus/Plaus_run-02/stereo_PI56.wav	2.0	1	2.199
26.303	6.407	SP_W	1.0	n/a	n/a	1.0	3.472	Plaus/Plaus_run-02/stereo_PW39.wav	1.0	1	1.4449999999999998
32.725	6.8420000000000005	SP_I	2.0	n/a	n/a	2.0	3.915	Plaus/Plaus_run-02/stereo_PI44.wav	2.0	1	1.7180000000000002
39.58	7.7	SP_C	1.0	n/a	n/a	1.0	0.225	Plaus/Plaus_run-02/CoM07e.wav	1.0	1	0.975
47.286	5.756	SP_S	1.0	n/a	n/a	1.0	2.716	Plaus/Plaus_run-02/stereo_PC03.wav	1.0	1	1.7740000000000005
53.056999999999995	7.372000000000001	SP_S	1.0	n/a	n/a	1.0	3.54	Plaus/Plaus_run-02/stereo_PC82.wav	1.0	1	1.485
60.428999999999995	6.095	SP_C	1.0	n/a	n/a	1.0	0.387	Plaus/Plaus_run-02/CoM04d.wav	1.0	1	1.137
66.53399999999999	6.303	SP_I	2.0	n/a	n/a	2.0	3.279	Plaus/Plaus_run-02/stereo_PI23.wav	2.0	1	2.295
72.83800000000002	5.655	SP_I	2.0	n/a	n/a	2.0	2.679	Plaus/Plaus_run-02/stereo_PI22.wav	2.0	1	1.7599999999999998
78.493	6.85	SP_C	1.0	n/a	n/a	1.0	0.434	Plaus/Plaus_run-02/CoM08d.wav	1.0	1	1.1840000000000002
85.348	6.9179999999999975	SP_S	1.0	n/a	n/a	1.0	3.7960000000000003	Plaus/Plaus_run-02/stereo_PC79.wav	1.0	1	1.5500000000000005
92.27	5.233	SP_I	2.0	n/a	n/a	2.0	2.5980000000000003	Plaus/Plaus_run-02/stereo_PI21.wav	2.0	1	1.5580000000000005
97.507	6.385	SP_S	1.0	n/a	n/a	1.0	2.536	Plaus/Plaus_run-02/stereo_PC46.wav	1.0	1	1.574
103.895	6.282	SP_W	1.0	n/a	n/a	1.0	3.199	Plaus/Plaus_run-02/stereo_PW64.wav	1.0	1	2.093
110.184	7.69	SP_C	1.0	n/a	n/a	1.0	2.752	Plaus/Plaus_run-02/CoM04e.wav	1.0	1	3.502
117.889	6.316	SP_I	2.0	n/a	n/a	2.0	3.763	Plaus/Plaus_run-02/stereo_PI34.wav	2.0	1	1.606
124.211	5.47	SP_C	1.0	n/a	n/a	1.0	1.554	Plaus/Plaus_run-02/CoM10b.wav	1.0	1	2.3040000000000003
129.68200000000002	5.636	SP_I	2.0	n/a	n/a	2.0	3.287	Plaus/Plaus_run-02/stereo_PI55.wav	2.0	1	2.4479999999999995
135.319	7.461	SP_W	1.0	n/a	n/a	1.0	4.768	Plaus/Plaus_run-02/stereo_PW83.wav	1.0	1	2.764
142.792	5.48	SP_C	1.0	n/a	n/a	1.0	0.595	Plaus/Plaus_run-02/CoM01b.wav	1.0	1	1.345
148.279	6.2120000000000015	SP_W	1.0	n/a	n/a	1.0	3.511	Plaus/Plaus_run-02/stereo_PW08.wav	1.0	1	2.6500000000000004
154.501	4.694	SP_W	1.0	n/a	n/a	1.0	2.529	Plaus/Plaus_run-02/stereo_PW07.wav	1.0	1	1.6540000000000001
159.204	6.197	SP_I	2.0	n/a	n/a	2.0	4.04	Plaus/Plaus_run-02/stereo_PI43.wav	2.0	1	1.9800000000000004
165.40900000000005	6.1979999999999995	SP_S	1.0	n/a	n/a	1.0	2.727	Plaus/Plaus_run-02/stereo_PC59.wav	1.0	1	1.726
171.614	7.345	SP_C	1.0	n/a	n/a	1.0	1.6369999999999998	Plaus/Plaus_run-02/CoM05l.wav	1.0	1	2.387
178.96900000000005	5.2429999999999986	SP_S	1.0	n/a	n/a	1.0	2.463	Plaus/Plaus_run-02/stereo_PC02.wav	1.0	1	1.584
184.22299999999998	6.82	SP_C	1.0	n/a	n/a	1.0	0.092	Plaus/Plaus_run-02/CoM09l.wav	1.0	1	0.8420000000000001
191.045	7.183	SP_I	2.0	n/a	n/a	2.0	3.6260000000000003	Plaus/Plaus_run-02/stereo_PI78.wav	2.0	1	1.7079999999999995
198.234	6.727	SP_W	1.0	n/a	n/a	1.0	3.7510000000000003	Plaus/Plaus_run-02/stereo_PW40.wav	1.0	1	1.5179999999999998
204.972	5.181	SP_S	1.0	n/a	n/a	1.0	3.5389999999999997	Plaus/Plaus_run-02/stereo_PC60.wav	1.0	1	2.249
210.16	7.135	SP_W	1.0	n/a	n/a	1.0	3.55	Plaus/Plaus_run-02/stereo_PW73.wav	1.0	1	1.6179999999999994
217.298	6.76	SP_C	1.0	n/a	n/a	1.0	0.6729999999999999	Plaus/Plaus_run-02/CoM04l.wav	1.0	1	1.423
224.07	6.682	SP_I	2.0	n/a	n/a	2.0	4.378	Plaus/Plaus_run-02/stereo_PI75.wav	2.0	1	2.3819999999999997
230.75900000000001	6.002999999999999	SP_W	1.0	n/a	n/a	1.0	3.84	Plaus/Plaus_run-02/stereo_PW63.wav	1.0	1	2.693
236.763	5.0760000000000005	SP_W	1.0	n/a	n/a	1.0	3.1660000000000004	Plaus/Plaus_run-02/stereo_PW05.wav	1.0	1	2.3880000000000003
241.85	6.218	SP_S	1.0	n/a	n/a	1.0	3.697	Plaus/Plaus_run-02/stereo_PC69.wav	1.0	1	1.4600000000000004
248.072	6.569	SP_S	1.0	n/a	n/a	1.0	3.635	Plaus/Plaus_run-02/stereo_PC70.wav	1.0	1	1.7590000000000001
