onset	duration	trial_type	correct	window1_response	window1_RT	window2_response	window2_RT	stim_file	calculated_response	calculated_accuracy	calculated_RT
1.084	4.2	S_U	2.0	n/a	n/a	2.0	1.79	Sem/Sem_run-01/stereo_1SU41A0.wav	2.0	1	1.54
5.287000000000001	3.596	S_C	1.0	n/a	n/a	1.0	0.187	Sem/Sem_run-01/ContS29.wav	1.0	1	0.937
8.89	3.425	S_U	2.0	n/a	n/a	2.0	1.401	Sem/Sem_run-01/stereo_2SU87A0.wav	2.0	1	1.151
12.325999999999999	3.933	S_H	1.0	n/a	n/a	2.0	1.5119999999999998	Sem/Sem_run-01/stereo_1SH13A0.wav	2.0	0	1.2619999999999998
16.262	4.323	S_H	1.0	n/a	n/a	2.0	1.327	Sem/Sem_run-01/stereo_1SH05A0.wav	2.0	0	1.077
20.599	4.073	S_C	1.0	n/a	n/a	1.0	0.006999999999999999	Sem/Sem_run-01/ContS31.wav	1.0	1	0.757
24.685	3.869	S_L	1.0	n/a	n/a	2.0	1.699	Sem/Sem_run-01/stereo_2SL63A0.wav	2.0	0	1.449
28.555	3.75	S_L	1.0	n/a	n/a	1.0	0.961	Sem/Sem_run-01/stereo_1SL29A0.wav	1.0	1	0.711
32.308	4.3660000000000005	S_U	2.0	n/a	n/a	2.0	1.6580000000000001	Sem/Sem_run-01/stereo_2SU78A0.wav	2.0	1	1.408
36.678000000000004	3.3	S_L	1.0	n/a	n/a	2.0	1.395	Sem/Sem_run-01/stereo_1SL17A0.wav	2.0	0	1.145
39.981	3.884	S_C	1.0	n/a	n/a	1.0	0.098	Sem/Sem_run-01/ContS05.wav	1.0	1	0.848
43.867	4.371	S_H	1.0	n/a	n/a	1.0	1.597	Sem/Sem_run-01/stereo_2SH58A0.wav	1.0	1	1.347
48.254	4.329	S_L	1.0	n/a	n/a	1.0	1.9480000000000002	Sem/Sem_run-01/stereo_2SL72A0.wav	1.0	1	1.698
52.59	3.94	S_H	1.0	n/a	n/a	1.0	1.921	Sem/Sem_run-01/stereo_2SH57A0.wav	1.0	1	1.671
56.543	4.2	S_U	2.0	n/a	n/a	2.0	1.317	Sem/Sem_run-01/stereo_2SU83A0.wav	2.0	1	1.067
60.746	3.474	S_C	1.0	n/a	n/a	1.0	0.273	Sem/Sem_run-01/ContS11.wav	1.0	1	1.0230000000000001
64.232	4.271	S_L	1.0	n/a	n/a	2.0	1.676	Sem/Sem_run-01/stereo_1SL26A0.wav	2.0	0	1.426
68.51899999999999	3.91	S_L	1.0	n/a	n/a	1.0	1.39	Sem/Sem_run-01/stereo_1SL25A0.wav	1.0	1	1.14
72.439	4.479	S_C	1.0	n/a	n/a	1.0	0.033	Sem/Sem_run-01/ContS25.wav	1.0	1	0.783
76.926	3.378	S_U	2.0	n/a	n/a	2.0	1.692	Sem/Sem_run-01/stereo_2SU81A0.wav	2.0	1	1.442
80.311	3.42	S_L	1.0	n/a	n/a	1.0	1.6969999999999998	Sem/Sem_run-01/stereo_1SL27A0.wav	1.0	1	1.4469999999999998
83.73100000000002	4.3439999999999985	S_L	1.0	n/a	n/a	2.0	1.324	Sem/Sem_run-01/stereo_1SL30A0.wav	2.0	0	1.074
88.084	3.909	S_L	1.0	n/a	n/a	1.0	1.4	Sem/Sem_run-01/stereo_2SL71A0.wav	1.0	1	1.15
92.00399999999999	3.867	S_H	1.0	n/a	n/a	1.0	1.436	Sem/Sem_run-01/stereo_1SH04A0.wav	1.0	1	1.186
95.87299999999999	3.828	S_U	2.0	n/a	n/a	2.0	1.479	Sem/Sem_run-01/stereo_1SU37A0.wav	2.0	1	1.229
99.71	4.565	S_C	1.0	n/a	n/a	1.0	0.276	Sem/Sem_run-01/ContS35.wav	1.0	1	1.026
104.28	3.3	S_U	2.0	n/a	n/a	1.0	1.4240000000000002	Sem/Sem_run-01/stereo_1SU35A0.wav	1.0	0	1.1740000000000002
107.58200000000001	3.477	S_L	1.0	n/a	n/a	1.0	2.066	Sem/Sem_run-01/stereo_2SL65A0.wav	1.0	1	1.8159999999999998
111.068	3.83	S_H	1.0	n/a	n/a	2.0	1.9469999999999998	Sem/Sem_run-01/stereo_1SH07A0.wav	2.0	0	1.697
114.905	4.3439999999999985	S_C	1.0	1.0	0.105	1.0	1.046	Sem/Sem_run-01/ContS07.wav	1.0	1	0.105
119.258	3.5	S_H	1.0	n/a	n/a	n/a	n/a	Sem/Sem_run-01/stereo_1SH03A0.wav	n/a	0	n/a
122.76100000000001	3.919	S_U	2.0	n/a	n/a	2.0	1.393	Sem/Sem_run-01/stereo_1SU45A0.wav	2.0	1	1.143
126.68	3.5	S_H	1.0	n/a	n/a	1.0	1.2429999999999999	Sem/Sem_run-01/stereo_1SH06A0.wav	1.0	1	0.9930000000000001
130.183	3.392	S_L	1.0	n/a	n/a	1.0	1.565	Sem/Sem_run-01/stereo_2SL62A0.wav	1.0	1	1.315
133.586	3.54	S_C	1.0	n/a	n/a	1.0	0.049	Sem/Sem_run-01/ContS19.wav	1.0	1	0.799
137.138	4.4	S_H	1.0	n/a	n/a	1.0	1.7180000000000002	Sem/Sem_run-01/stereo_1SH15A0.wav	1.0	1	1.4680000000000002
141.542	3.342	S_H	1.0	n/a	n/a	1.0	1.462	Sem/Sem_run-01/stereo_1SH11A0.wav	1.0	1	1.212
144.894	3.385	S_U	2.0	n/a	n/a	2.0	1.807	Sem/Sem_run-01/stereo_1SU44A0.wav	2.0	1	1.557
148.28	3.4160000000000004	S_H	1.0	n/a	n/a	2.0	1.839	Sem/Sem_run-01/stereo_2SH56A0.wav	2.0	0	1.589
151.7	3.849	S_U	2.0	n/a	n/a	2.0	1.413	Sem/Sem_run-01/stereo_2SU82A0.wav	2.0	1	1.163
155.553	3.934	S_C	1.0	n/a	n/a	1.0	0.021	Sem/Sem_run-01/ContS13.wav	1.0	1	0.771
159.489	4.309	S_L	1.0	n/a	n/a	1.0	1.136	Sem/Sem_run-01/stereo_2SL64A0.wav	1.0	1	0.8859999999999999
163.809	4.413	S_C	1.0	n/a	n/a	1.0	0.397	Sem/Sem_run-01/ContS17.wav	1.0	1	1.147
168.229	4.2	S_U	2.0	n/a	n/a	2.0	1.5	Sem/Sem_run-01/stereo_2SU90A0.wav	2.0	1	1.25
172.43200000000004	3.846	S_U	2.0	n/a	n/a	2.0	1.2229999999999999	Sem/Sem_run-01/stereo_2SU88A0.wav	2.0	1	0.9730000000000001
176.285	3.3939999999999997	S_C	1.0	n/a	n/a	1.0	0.022000000000000002	Sem/Sem_run-01/ContS01.wav	1.0	1	0.772
179.688	4.013	S_C	1.0	n/a	n/a	1.0	0.14400000000000002	Sem/Sem_run-01/ContS23.wav	1.0	1	0.894
183.707	4.227	S_H	1.0	n/a	n/a	2.0	1.183	Sem/Sem_run-01/stereo_1SH08A0.wav	2.0	0	0.933
