onset	duration	trial_type	correct	window1_response	window1_RT	window2_response	window2_RT	stim_file	calculated_response	calculated_accuracy	calculated_RT
1.485	4.2	S_U	2.0	n/a	n/a	2.0	1.406	Sem/Sem_run-01/stereo_1SU41A0.wav	2.0	1	1.156
5.7	3.596	S_C	1.0	1.0	0.732	1.0	1.217	Sem/Sem_run-01/ContS29.wav	1.0	1	0.732
9.3	3.425	S_U	2.0	n/a	n/a	n/a	n/a	Sem/Sem_run-01/stereo_2SU87A0.wav	n/a	0	n/a
12.732999999999999	3.933	S_H	1.0	n/a	n/a	1.0	1.19	Sem/Sem_run-01/stereo_1SH13A0.wav	1.0	1	0.94
16.667	4.323	S_H	1.0	n/a	n/a	1.0	1.3419999999999999	Sem/Sem_run-01/stereo_1SH05A0.wav	1.0	1	1.092
21.0	4.073	S_C	1.0	n/a	n/a	1.0	0.20199999999999999	Sem/Sem_run-01/ContS31.wav	1.0	1	0.952
25.083000000000002	3.869	S_L	1.0	n/a	n/a	1.0	1.604	Sem/Sem_run-01/stereo_2SL63A0.wav	1.0	1	1.354
28.967	3.75	S_L	1.0	n/a	n/a	1.0	1.327	Sem/Sem_run-01/stereo_1SL29A0.wav	1.0	1	1.077
32.716	4.3660000000000005	S_U	2.0	n/a	n/a	2.0	2.551	Sem/Sem_run-01/stereo_2SU78A0.wav	2.0	1	2.301
37.083	3.3	S_L	1.0	n/a	n/a	1.0	1.416	Sem/Sem_run-01/stereo_1SL17A0.wav	1.0	1	1.166
40.383	3.884	S_C	1.0	n/a	n/a	1.0	0.055999999999999994	Sem/Sem_run-01/ContS05.wav	1.0	1	0.806
44.283	4.371	S_H	1.0	n/a	n/a	1.0	1.4980000000000002	Sem/Sem_run-01/stereo_2SH58A0.wav	1.0	1	1.2480000000000002
48.666000000000004	4.329	S_L	1.0	n/a	n/a	1.0	1.321	Sem/Sem_run-01/stereo_2SL72A0.wav	1.0	1	1.071
52.998999999999995	3.94	S_H	1.0	n/a	n/a	1.0	1.608	Sem/Sem_run-01/stereo_2SH57A0.wav	1.0	1	1.358
56.949	4.2	S_U	2.0	n/a	n/a	2.0	1.281	Sem/Sem_run-01/stereo_2SU83A0.wav	2.0	1	1.031
61.148999999999994	3.474	S_C	1.0	n/a	n/a	1.0	0.128	Sem/Sem_run-01/ContS11.wav	1.0	1	0.878
64.632	4.271	S_L	1.0	n/a	n/a	1.0	1.5859999999999999	Sem/Sem_run-01/stereo_1SL26A0.wav	1.0	1	1.336
68.916	3.91	S_L	1.0	n/a	n/a	1.0	1.501	Sem/Sem_run-01/stereo_1SL25A0.wav	1.0	1	1.251
72.832	4.479	S_C	1.0	n/a	n/a	1.0	0.009000000000000001	Sem/Sem_run-01/ContS25.wav	1.0	1	0.759
77.316	3.378	S_U	2.0	n/a	n/a	2.0	1.696	Sem/Sem_run-01/stereo_2SU81A0.wav	2.0	1	1.446
80.699	3.42	S_L	1.0	n/a	n/a	1.0	1.41	Sem/Sem_run-01/stereo_1SL27A0.wav	1.0	1	1.16
84.132	4.3439999999999985	S_L	1.0	n/a	n/a	1.0	1.599	Sem/Sem_run-01/stereo_1SL30A0.wav	1.0	1	1.349
88.48200000000001	3.909	S_L	1.0	n/a	n/a	1.0	1.432	Sem/Sem_run-01/stereo_2SL71A0.wav	1.0	1	1.182
92.398	3.867	S_H	1.0	n/a	n/a	1.0	1.396	Sem/Sem_run-01/stereo_1SH04A0.wav	1.0	1	1.146
96.265	3.828	S_U	2.0	n/a	n/a	2.0	1.901	Sem/Sem_run-01/stereo_1SU37A0.wav	2.0	1	1.651
100.098	4.565	S_C	1.0	1.0	0.6779999999999999	1.0	0.83	Sem/Sem_run-01/ContS35.wav	1.0	1	0.6779999999999999
104.665	3.3	S_U	2.0	n/a	n/a	2.0	1.405	Sem/Sem_run-01/stereo_1SU35A0.wav	2.0	1	1.155
107.965	3.477	S_L	1.0	n/a	n/a	1.0	1.219	Sem/Sem_run-01/stereo_2SL65A0.wav	1.0	1	0.9690000000000001
111.448	3.83	S_H	1.0	n/a	n/a	1.0	1.629	Sem/Sem_run-01/stereo_1SH07A0.wav	1.0	1	1.379
115.281	4.3439999999999985	S_C	1.0	1.0	0.682	1.0	0.746	Sem/Sem_run-01/ContS07.wav	1.0	1	0.682
119.631	3.5	S_H	1.0	n/a	n/a	1.0	1.367	Sem/Sem_run-01/stereo_1SH03A0.wav	1.0	1	1.117
123.131	3.919	S_U	2.0	n/a	n/a	2.0	1.49	Sem/Sem_run-01/stereo_1SU45A0.wav	2.0	1	1.24
127.064	3.5	S_H	1.0	n/a	n/a	1.0	1.551	Sem/Sem_run-01/stereo_1SH06A0.wav	1.0	1	1.301
130.564	3.392	S_L	1.0	n/a	n/a	1.0	1.185	Sem/Sem_run-01/stereo_2SL62A0.wav	1.0	1	0.935
133.964	3.54	S_C	1.0	n/a	n/a	1.0	0.054000000000000006	Sem/Sem_run-01/ContS19.wav	1.0	1	0.804
137.514	4.4	S_H	1.0	n/a	n/a	1.0	1.5759999999999998	Sem/Sem_run-01/stereo_1SH15A0.wav	1.0	1	1.3259999999999998
141.914	3.342	S_H	1.0	n/a	n/a	1.0	1.9269999999999998	Sem/Sem_run-01/stereo_1SH11A0.wav	1.0	1	1.677
145.264	3.385	S_U	2.0	n/a	n/a	2.0	1.151	Sem/Sem_run-01/stereo_1SU44A0.wav	2.0	1	0.901
148.664	3.4160000000000004	S_H	1.0	n/a	n/a	1.0	1.945	Sem/Sem_run-01/stereo_2SH56A0.wav	1.0	1	1.695
152.08100000000005	3.849	S_U	2.0	n/a	n/a	2.0	1.534	Sem/Sem_run-01/stereo_2SU82A0.wav	2.0	1	1.284
155.931	3.934	S_C	1.0	1.0	0.7290000000000001	1.0	0.7170000000000001	Sem/Sem_run-01/ContS13.wav	1.0	1	0.7290000000000001
159.88	4.309	S_L	1.0	n/a	n/a	2.0	1.6740000000000002	Sem/Sem_run-01/stereo_2SL64A0.wav	2.0	0	1.4240000000000002
164.197	4.413	S_C	1.0	n/a	n/a	1.0	0.11699999999999999	Sem/Sem_run-01/ContS17.wav	1.0	1	0.867
168.614	4.2	S_U	2.0	n/a	n/a	2.0	1.642	Sem/Sem_run-01/stereo_2SU90A0.wav	2.0	1	1.392
172.83	3.846	S_U	2.0	n/a	n/a	2.0	1.4680000000000002	Sem/Sem_run-01/stereo_2SU88A0.wav	2.0	1	1.2180000000000002
176.68	3.3939999999999997	S_C	1.0	1.0	0.685	1.0	1.028	Sem/Sem_run-01/ContS01.wav	1.0	1	0.685
180.08	4.013	S_C	1.0	n/a	n/a	1.0	0.171	Sem/Sem_run-01/ContS23.wav	1.0	1	0.921
184.097	4.227	S_H	1.0	n/a	n/a	1.0	1.611	Sem/Sem_run-01/stereo_1SH08A0.wav	1.0	1	1.361
