onset	duration	trial_type	correct	window1_response	window1_RT	window2_response	window2_RT	stim_file	calculated_response	calculated_accuracy	calculated_RT
1.0924	3.5	P_R	1.0	n/a	n/a	n/a	n/a	Phon/Phon_run-02/stereo_PR20.wav	1.0	1	3.24
4.595	4.235	P_O	1.0	1.0	0.74	1.0	1.367	Phon/Phon_run-02/PC034.wav	1.0	1	1.117
8.8325	3.375	P_R	1.0	n/a	n/a	1.0	1.508	Phon/Phon_run-02/stereo_PR13.wav	1.0	1	1.258
12.2183	3.474	P_C	1.0	n/a	n/a	1.0	1.631	Phon/Phon_run-02/ContS12.wav	1.0	1	2.3810000000000002
15.7041	3.875	P_U	2.0	n/a	n/a	2.0	2.019	Phon/Phon_run-02/PM025.wav	2.0	1	1.7690000000000001
19.5903	3.726	P_R	1.0	n/a	n/a	1.0	1.3259999999999998	Phon/Phon_run-02/stereo_PR22.wav	1.0	1	1.0759999999999998
23.3263	3.451	P_O	1.0	n/a	n/a	2.0	1.4880000000000002	Phon/Phon_run-02/PC014.wav	2.0	0	1.2380000000000002
26.7799	3.779	P_C	1.0	n/a	n/a	1.0	1.9040000000000001	Phon/Phon_run-02/ContS02.wav	1.0	1	2.654
30.566	3.821	P_U	2.0	n/a	n/a	2.0	1.93	Phon/Phon_run-02/stereo_PU18.wav	2.0	1	1.68
34.402	3.49	P_U	2.0	n/a	n/a	2.0	2.211	Phon/Phon_run-02/stereo_PU12.wav	2.0	1	1.9609999999999999
37.9046	4.38	P_C	1.0	n/a	n/a	1.0	1.4480000000000002	Phon/Phon_run-02/ContS32.wav	1.0	1	2.1980000000000004
42.291000000000004	4.0969999999999995	P_R	1.0	n/a	n/a	1.0	2.154	Phon/Phon_run-02/stereo_PR16.wav	1.0	1	1.904
46.394	3.5	P_O	1.0	n/a	n/a	1.0	1.7819999999999998	Phon/Phon_run-02/PC022.wav	1.0	1	1.5319999999999998
49.8966	4.0760000000000005	P_R	1.0	n/a	n/a	1.0	1.287	Phon/Phon_run-02/stereo_PR08.wav	1.0	1	1.037
53.983000000000004	3.5	P_O	1.0	n/a	n/a	1.0	1.433	Phon/Phon_run-02/PC028.wav	1.0	1	1.183
57.4856	3.5	P_U	2.0	n/a	n/a	2.0	1.57	Phon/Phon_run-02/stereo_PU27.wav	2.0	1	1.32
60.9881	3.819	P_C	1.0	n/a	n/a	1.0	1.234	Phon/Phon_run-02/ContS06.wav	1.0	1	1.984
64.8086	4.25	P_O	1.0	n/a	n/a	n/a	n/a	Phon/Phon_run-02/PC031.wav	n/a	0	n/a
69.062	3.662	P_C	1.0	1.0	0.078	1.0	1.12	Phon/Phon_run-02/ContS36.wav	1.0	1	0.078
72.7312	3.823	P_O	1.0	n/a	n/a	1.0	1.936	Phon/Phon_run-02/PC023.wav	1.0	1	1.686
76.5674	4.323	P_C	1.0	n/a	n/a	1.0	2.701	Phon/Phon_run-02/ContS24.wav	1.0	1	3.451
80.9038	3.865	P_U	2.0	n/a	n/a	2.0	1.505	Phon/Phon_run-02/PM004.wav	2.0	1	1.255
84.7733	3.875	P_O	1.0	n/a	n/a	1.0	2.468	Phon/Phon_run-02/PC007.wav	1.0	1	2.218
88.6594	4.25	P_U	2.0	n/a	n/a	n/a	n/a	Phon/Phon_run-02/PM011.wav	n/a	0	n/a
92.9126	4.362	P_C	1.0	n/a	n/a	1.0	1.5659999999999998	Phon/Phon_run-02/ContS30.wav	1.0	1	2.316
97.2825	3.875	P_O	1.0	n/a	n/a	2.0	2.596	Phon/Phon_run-02/PC030.wav	2.0	0	2.346
101.1687	3.3360000000000003	P_R	1.0	n/a	n/a	1.0	1.254	Phon/Phon_run-02/stereo_PR05.wav	1.0	1	1.004
104.5077	4.113	P_U	2.0	n/a	n/a	2.0	2.0340000000000003	Phon/Phon_run-02/stereo_PU01.wav	2.0	1	1.7840000000000003
108.6273	4.1739999999999995	P_U	2.0	n/a	n/a	2.0	3.0060000000000002	Phon/Phon_run-02/PM029.wav	2.0	1	2.756
112.8137	3.4539999999999997	P_C	1.0	n/a	n/a	1.0	2.18	Phon/Phon_run-02/ContS08.wav	1.0	1	2.93
116.2828	3.446	P_R	1.0	n/a	n/a	n/a	n/a	Phon/Phon_run-02/stereo_PR30.wav	n/a	0	n/a
119.7352	3.85	P_R	1.0	n/a	n/a	1.0	1.653	Phon/Phon_run-02/stereo_PR07.wav	1.0	1	1.403
123.588	3.438	P_U	2.0	n/a	n/a	2.0	1.53	Phon/Phon_run-02/stereo_PU02.wav	2.0	1	1.28
127.0406	3.915	P_C	1.0	n/a	n/a	1.0	2.174	Phon/Phon_run-02/ContS20.wav	1.0	1	2.924
130.9601	3.487	P_U	2.0	n/a	n/a	n/a	n/a	Phon/Phon_run-02/PM021.wav	n/a	0	n/a
134.46200000000002	3.965	P_C	1.0	2.0	0.096	1.0	1.861	Phon/Phon_run-02/ContS26.wav	2.0	0	0.096
138.4315	3.792	P_R	1.0	n/a	n/a	1.0	2.503	Phon/Phon_run-02/stereo_PR31.wav	1.0	1	2.253
142.2343	4.135	P_O	1.0	n/a	n/a	1.0	1.9269999999999998	Phon/Phon_run-02/PC024.wav	1.0	1	1.677
146.3717	3.875	P_U	2.0	n/a	n/a	2.0	1.51	Phon/Phon_run-02/PM010.wav	2.0	1	1.26
150.2579	3.875	P_O	1.0	n/a	n/a	1.0	2.1790000000000003	Phon/Phon_run-02/PC015.wav	1.0	1	1.9290000000000003
154.144	4.245	P_C	1.0	n/a	n/a	1.0	1.3419999999999999	Phon/Phon_run-02/ContS14.wav	1.0	1	2.092
158.3971	3.854	P_R	1.0	n/a	n/a	n/a	n/a	Phon/Phon_run-02/stereo_PR14.wav	n/a	0	n/a
162.2662	4.239	P_O	1.0	n/a	n/a	1.0	1.733	Phon/Phon_run-02/PC008.wav	1.0	1	1.483
166.5192	4.25	P_U	2.0	n/a	n/a	2.0	1.479	Phon/Phon_run-02/stereo_PU11.wav	2.0	1	1.229
170.7726	3.523	P_C	1.0	n/a	n/a	1.0	1.338	Phon/Phon_run-02/ContS18.wav	1.0	1	2.088
174.3085	3.429	P_O	1.0	n/a	n/a	n/a	n/a	Phon/Phon_run-02/PC006.wav	n/a	0	n/a
177.7443	4.18	P_R	1.0	n/a	n/a	1.0	1.271	Phon/Phon_run-02/stereo_PR32.wav	1.0	1	1.021
181.9307	4.104	P_R	1.0	n/a	n/a	1.0	1.577	Phon/Phon_run-02/stereo_PR24.wav	1.0	1	1.327
