onset	duration	trial_type	correct	window1_response	window1_RT	window2_response	window2_RT	stim_file	calculated_response	calculated_accuracy	calculated_RT
1.101	3.5	P_R	1.0	n/a	n/a	1.0	1.337	Phon/Phon_run-02/stereo_PR20.wav	1.0	1	1.087
4.604	4.235	P_O	1.0	n/a	n/a	1.0	1.527	Phon/Phon_run-02/PC034.wav	1.0	1	1.277
8.84	3.375	P_R	1.0	n/a	n/a	1.0	1.348	Phon/Phon_run-02/stereo_PR13.wav	1.0	1	1.098
12.225999999999999	3.474	P_C	1.0	n/a	n/a	1.0	0.28	Phon/Phon_run-02/ContS12.wav	1.0	1	1.03
15.712	3.875	P_U	2.0	n/a	n/a	2.0	1.247	Phon/Phon_run-02/PM025.wav	2.0	1	0.9970000000000001
19.599	3.726	P_R	1.0	n/a	n/a	1.0	1.034	Phon/Phon_run-02/stereo_PR22.wav	1.0	1	0.784
23.335	3.451	P_O	1.0	n/a	n/a	1.0	1.4769999999999999	Phon/Phon_run-02/PC014.wav	1.0	1	1.227
26.788	3.779	P_C	1.0	n/a	n/a	1.0	0.098	Phon/Phon_run-02/ContS02.wav	1.0	1	0.848
30.574	3.821	P_U	2.0	n/a	n/a	2.0	1.611	Phon/Phon_run-02/stereo_PU18.wav	2.0	1	1.361
34.41	3.49	P_U	2.0	n/a	n/a	2.0	1.3619999999999999	Phon/Phon_run-02/stereo_PU12.wav	2.0	1	1.112
37.913000000000004	4.38	P_C	1.0	n/a	n/a	1.0	2.1790000000000003	Phon/Phon_run-02/ContS32.wav	1.0	1	2.9290000000000003
42.3	4.0969999999999995	P_R	1.0	n/a	n/a	1.0	1.476	Phon/Phon_run-02/stereo_PR16.wav	1.0	1	1.226
46.403	3.5	P_O	1.0	n/a	n/a	1.0	1.85	Phon/Phon_run-02/PC022.wav	1.0	1	1.6
49.905	4.0760000000000005	P_R	1.0	n/a	n/a	1.0	1.3130000000000002	Phon/Phon_run-02/stereo_PR08.wav	1.0	1	1.0630000000000002
53.992	3.5	P_O	1.0	n/a	n/a	1.0	1.5430000000000001	Phon/Phon_run-02/PC028.wav	1.0	1	1.293
57.495	3.5	P_U	2.0	n/a	n/a	2.0	1.321	Phon/Phon_run-02/stereo_PU27.wav	2.0	1	1.071
60.997	3.819	P_C	1.0	n/a	n/a	1.0	0.24	Phon/Phon_run-02/ContS06.wav	1.0	1	0.99
64.817	4.25	P_O	1.0	n/a	n/a	1.0	1.893	Phon/Phon_run-02/PC031.wav	1.0	1	1.643
69.07	3.662	P_C	1.0	n/a	n/a	1.0	0.547	Phon/Phon_run-02/ContS36.wav	1.0	1	1.2970000000000002
72.74	3.823	P_O	1.0	n/a	n/a	1.0	1.3840000000000001	Phon/Phon_run-02/PC023.wav	1.0	1	1.134
76.57600000000002	4.323	P_C	1.0	n/a	n/a	1.0	0.11800000000000001	Phon/Phon_run-02/ContS24.wav	1.0	1	0.868
80.913	3.865	P_U	2.0	n/a	n/a	2.0	1.291	Phon/Phon_run-02/PM004.wav	2.0	1	1.041
84.78200000000002	3.875	P_O	1.0	n/a	n/a	1.0	1.4469999999999998	Phon/Phon_run-02/PC007.wav	1.0	1	1.1969999999999998
88.669	4.25	P_U	2.0	n/a	n/a	1.0	2.068	Phon/Phon_run-02/PM011.wav	1.0	0	1.818
92.92200000000001	4.362	P_C	1.0	1.0	0.7390000000000001	1.0	0.531	Phon/Phon_run-02/ContS30.wav	1.0	1	0.7390000000000001
97.292	3.875	P_O	1.0	n/a	n/a	1.0	1.766	Phon/Phon_run-02/PC030.wav	1.0	1	1.516
101.178	3.3360000000000003	P_R	1.0	n/a	n/a	1.0	1.6780000000000002	Phon/Phon_run-02/stereo_PR05.wav	1.0	1	1.4280000000000002
104.514	4.113	P_U	2.0	n/a	n/a	2.0	1.369	Phon/Phon_run-02/stereo_PU01.wav	2.0	1	1.119
108.634	4.1739999999999995	P_U	2.0	n/a	n/a	1.0	1.6440000000000001	Phon/Phon_run-02/PM029.wav	1.0	0	1.394
112.821	3.4539999999999997	P_C	1.0	n/a	n/a	1.0	0.040999999999999995	Phon/Phon_run-02/ContS08.wav	1.0	1	0.791
116.29	3.446	P_R	1.0	n/a	n/a	1.0	2.077	Phon/Phon_run-02/stereo_PR30.wav	1.0	1	1.827
119.743	3.85	P_R	1.0	n/a	n/a	1.0	1.198	Phon/Phon_run-02/stereo_PR07.wav	1.0	1	0.948
123.596	3.438	P_U	2.0	n/a	n/a	2.0	1.54	Phon/Phon_run-02/stereo_PU02.wav	2.0	1	1.29
127.04799999999999	3.915	P_C	1.0	n/a	n/a	1.0	0.747	Phon/Phon_run-02/ContS20.wav	1.0	1	1.4969999999999999
130.968	3.487	P_U	2.0	n/a	n/a	2.0	1.537	Phon/Phon_run-02/PM021.wav	2.0	1	1.287
134.471	3.965	P_C	1.0	n/a	n/a	1.0	0.22399999999999998	Phon/Phon_run-02/ContS26.wav	1.0	1	0.974
138.441	3.792	P_R	1.0	n/a	n/a	1.0	1.7730000000000001	Phon/Phon_run-02/stereo_PR31.wav	1.0	1	1.523
142.244	4.135	P_O	1.0	n/a	n/a	2.0	1.7180000000000002	Phon/Phon_run-02/PC024.wav	2.0	0	1.4680000000000002
146.38	3.875	P_U	2.0	n/a	n/a	2.0	1.256	Phon/Phon_run-02/PM010.wav	2.0	1	1.006
150.266	3.875	P_O	1.0	n/a	n/a	1.0	1.359	Phon/Phon_run-02/PC015.wav	1.0	1	1.109
154.153	4.245	P_C	1.0	n/a	n/a	1.0	0.736	Phon/Phon_run-02/ContS14.wav	1.0	1	1.486
158.406	3.854	P_R	1.0	n/a	n/a	n/a	n/a	Phon/Phon_run-02/stereo_PR14.wav	n/a	0	n/a
162.276	4.239	P_O	1.0	n/a	n/a	1.0	1.909	Phon/Phon_run-02/PC008.wav	1.0	1	1.659
166.52900000000002	4.25	P_U	2.0	n/a	n/a	2.0	2.218	Phon/Phon_run-02/stereo_PU11.wav	2.0	1	1.968
170.782	3.523	P_C	1.0	n/a	n/a	1.0	0.07200000000000001	Phon/Phon_run-02/ContS18.wav	1.0	1	0.8220000000000001
174.31799999999996	3.429	P_O	1.0	n/a	n/a	1.0	0.976	Phon/Phon_run-02/PC006.wav	1.0	1	0.726
177.75400000000005	4.18	P_R	1.0	n/a	n/a	2.0	2.781	Phon/Phon_run-02/stereo_PR32.wav	2.0	0	2.531
181.94099999999997	4.104	P_R	1.0	n/a	n/a	1.0	1.396	Phon/Phon_run-02/stereo_PR24.wav	1.0	1	1.146
