onset	duration	trial_type	correct	window1_response	window1_RT	window2_response	window2_RT	stim_file	calculated_response	calculated_accuracy	calculated_RT
1.2670000000000001	7.632999999999999	G_P	2.0	n/a	n/a	2.0	4.225	Gram/Gram_run-02/stereo_1MP45U4.wav	2.0	1	2.0939999999999994
8.9	7.315	G_F	2.0	n/a	n/a	2.0	4.067	Gram/Gram_run-02/stereo_1MF20U4.wav	2.0	1	3.3569999999999998
16.215999999999998	6.2829999999999995	G_P	2.0	n/a	n/a	2.0	3.34	Gram/Gram_run-02/stereo_1MP34U2.wav	2.0	1	2.2479999999999998
22.499000000000002	6.195	G_C	1.0	1.0	0.5820000000000001	n/a	n/a	Gram/Gram_run-02/CoM06d.wav	1.0	1	0.5820000000000001
28.699	6.221	G_G	1.0	n/a	n/a	1.0	3.715	Gram/Gram_run-02/stereo_1MF02G1.wav	1.0	1	1.6749999999999998
34.931999999999995	5.801	G_F	2.0	n/a	n/a	2.0	3.4760000000000004	Gram/Gram_run-02/stereo_2MF64U3.wav	2.0	1	4.226000000000001
40.749	6.78	G_C	1.0	n/a	n/a	1.0	0.07200000000000001	Gram/Gram_run-02/CoM07l.wav	1.0	1	0.8220000000000001
47.532	6.084	G_F	2.0	n/a	n/a	2.0	3.1660000000000004	Gram/Gram_run-02/stereo_2MF56U2.wav	2.0	1	3.9160000000000004
53.632	7.5470000000000015	G_F	2.0	n/a	n/a	2.0	3.938	Gram/Gram_run-02/stereo_1MF21U4.wav	2.0	1	3.1870000000000003
61.181999999999995	6.482	G_G	1.0	n/a	n/a	1.0	4.343999999999999	Gram/Gram_run-02/stereo_1MF24G4.wav	1.0	1	1.9829999999999988
67.665	6.7810000000000015	G_P	2.0	n/a	n/a	2.0	4.487	Gram/Gram_run-02/stereo_2MP76U1.wav	2.0	1	2.2250000000000005
74.44800000000002	6.643	G_P	2.0	n/a	n/a	2.0	3.208	Gram/Gram_run-02/stereo_2MP80U2.wav	2.0	1	2.2520000000000002
81.098	7.69	G_C	1.0	1.0	0.693	1.0	2.838	Gram/Gram_run-02/CoM06e.wav	1.0	1	0.693
88.79799999999999	6.352	G_F	2.0	n/a	n/a	2.0	2.553	Gram/Gram_run-02/stereo_2MF63U3.wav	2.0	1	3.303
95.164	5.801	G_G	1.0	n/a	n/a	2.0	3.887	Gram/Gram_run-02/stereo_1MF18G3.wav	2.0	0	2.504
100.98100000000001	7.1129999999999995	G_P	2.0	n/a	n/a	2.0	4.297	Gram/Gram_run-02/stereo_1MP44U4.wav	2.0	1	1.9399999999999995
108.09700000000001	6.78	G_C	1.0	n/a	n/a	1.0	3.661	Gram/Gram_run-02/CoM05b.wav	1.0	1	4.411
114.88	6.7360000000000015	G_F	2.0	n/a	n/a	1.0	4.625	Gram/Gram_run-02/stereo_2MF58U2.wav	1.0	0	5.375
121.63	6.0889999999999995	G_P	2.0	n/a	n/a	2.0	3.48	Gram/Gram_run-02/stereo_2MP87U3.wav	2.0	1	2.268
127.73	7.637	G_P	2.0	n/a	n/a	1.0	4.742	Gram/Gram_run-02/stereo_2MP73U1.wav	1.0	0	2.715
135.38	7.305	G_C	1.0	n/a	n/a	1.0	0.294	Gram/Gram_run-02/CoM02l.wav	1.0	1	1.044
142.696	5.983	G_G	1.0	n/a	n/a	1.0	4.287	Gram/Gram_run-02/stereo_1MP42G3.wav	1.0	1	3.3649999999999998
148.679	5.36	G_P	2.0	n/a	n/a	2.0	3.4530000000000003	Gram/Gram_run-02/stereo_1MP32U2.wav	2.0	1	2.447
154.046	7.145	G_C	1.0	n/a	n/a	1.0	0.281	Gram/Gram_run-02/CoM09e.wav	1.0	1	1.0310000000000001
161.196	6.28	G_F	2.0	n/a	n/a	2.0	4.494	Gram/Gram_run-02/stereo_1MF19U4.wav	2.0	1	3.808
167.479	6.63	G_C	1.0	n/a	n/a	1.0	0.046	Gram/Gram_run-02/CoM07b.wav	1.0	1	0.796
174.112	7.195	G_G	1.0	n/a	n/a	1.0	3.859	Gram/Gram_run-02/stereo_2MP89G3.wav	1.0	1	2.521
181.312	5.1739999999999995	G_F	2.0	n/a	n/a	n/a	n/a	Gram/Gram_run-02/stereo_1MF07U2.wav	n/a	0	n/a
186.495	6.944	G_P	2.0	n/a	n/a	2.0	5.332999999999999	Gram/Gram_run-02/stereo_2MP88U3.wav	2.0	1	4.289999999999998
193.445	6.0889999999999995	G_G	1.0	n/a	n/a	1.0	4.2780000000000005	Gram/Gram_run-02/stereo_2MF66G3.wav	1.0	1	2.904000000000001
199.545	6.5	G_C	1.0	n/a	n/a	1.0	0.08	Gram/Gram_run-02/CoM01e.wav	1.0	1	0.83
206.045	6.43	G_P	2.0	n/a	n/a	2.0	4.876	Gram/Gram_run-02/stereo_1MP43U4.wav	2.0	1	2.5940000000000003
212.47799999999998	6.19	G_G	1.0	n/a	n/a	1.0	3.1639999999999997	Gram/Gram_run-02/stereo_2MP84G2.wav	1.0	1	2.232
218.678	7.114	G_G	1.0	n/a	n/a	1.0	4.342	Gram/Gram_run-02/stereo_1MP29G1.wav	1.0	1	2.1539999999999995
225.794	6.731	G_F	2.0	n/a	n/a	2.0	4.18	Gram/Gram_run-02/stereo_2MF53U1.wav	2.0	1	3.6089999999999995
232.52700000000002	6.015	G_C	1.0	n/a	n/a	1.0	0.087	Gram/Gram_run-02/CoM02d.wav	1.0	1	0.837
238.544	7.17	G_G	1.0	n/a	n/a	1.0	4.138999999999999	Gram/Gram_run-02/stereo_2MF71G4.wav	1.0	1	1.889999999999998
245.727	5.33	G_C	1.0	n/a	n/a	1.0	0.32899999999999996	Gram/Gram_run-02/CoM06b.wav	1.0	1	1.079
251.06	6.9689999999999985	G_F	2.0	n/a	n/a	2.0	4.005	Gram/Gram_run-02/stereo_2MF54U1.wav	2.0	1	3.435
258.043	7.6	G_G	1.0	n/a	n/a	1.0	4.023	Gram/Gram_run-02/stereo_2MF49G1.wav	1.0	1	1.8339999999999996
