onset	duration	trial_type	correct	window1_response	window1_RT	window2_response	window2_RT	stim_file	calculated_response	calculated_accuracy	calculated_RT
1.0924	3.5	P_R	1.0	n/a	n/a	1.0	1.33	Phon/Phon_run-02/stereo_PR20.wav	1.0	1	1.08
4.595	4.235	P_O	1.0	n/a	n/a	1.0	1.605	Phon/Phon_run-02/PC034.wav	1.0	1	1.355
8.8325	3.375	P_R	1.0	n/a	n/a	2.0	1.409	Phon/Phon_run-02/stereo_PR13.wav	2.0	0	1.159
12.2183	3.474	P_C	1.0	n/a	n/a	1.0	1.254	Phon/Phon_run-02/ContS12.wav	1.0	1	2.004
15.7041	3.875	P_U	2.0	n/a	n/a	2.0	1.569	Phon/Phon_run-02/PM025.wav	2.0	1	1.319
19.5903	3.726	P_R	1.0	n/a	n/a	1.0	1.212	Phon/Phon_run-02/stereo_PR22.wav	1.0	1	0.962
23.3263	3.451	P_O	1.0	n/a	n/a	2.0	1.162	Phon/Phon_run-02/PC014.wav	2.0	0	0.9119999999999999
26.7799	3.779	P_C	1.0	n/a	n/a	1.0	0.385	Phon/Phon_run-02/ContS02.wav	1.0	1	1.135
30.566	3.821	P_U	2.0	n/a	n/a	2.0	1.371	Phon/Phon_run-02/stereo_PU18.wav	2.0	1	1.121
34.402	3.49	P_U	2.0	n/a	n/a	2.0	1.625	Phon/Phon_run-02/stereo_PU12.wav	2.0	1	1.375
37.9046	4.38	P_C	1.0	n/a	n/a	1.0	0.86	Phon/Phon_run-02/ContS32.wav	1.0	1	1.6099999999999999
42.291000000000004	4.0969999999999995	P_R	1.0	n/a	n/a	2.0	1.754	Phon/Phon_run-02/stereo_PR16.wav	2.0	0	1.504
46.394	3.5	P_O	1.0	n/a	n/a	2.0	1.706	Phon/Phon_run-02/PC022.wav	2.0	0	1.456
49.8966	4.0760000000000005	P_R	1.0	n/a	n/a	1.0	1.345	Phon/Phon_run-02/stereo_PR08.wav	1.0	1	1.095
53.983000000000004	3.5	P_O	1.0	n/a	n/a	2.0	1.399	Phon/Phon_run-02/PC028.wav	2.0	0	1.149
57.4856	3.5	P_U	2.0	n/a	n/a	2.0	1.5319999999999998	Phon/Phon_run-02/stereo_PU27.wav	2.0	1	1.2819999999999998
60.9881	3.819	P_C	1.0	1.0	0.7190000000000001	1.0	0.547	Phon/Phon_run-02/ContS06.wav	1.0	1	0.7190000000000001
64.8086	4.25	P_O	1.0	n/a	n/a	2.0	1.536	Phon/Phon_run-02/PC031.wav	2.0	0	1.286
69.062	3.662	P_C	1.0	2.0	0.6409999999999999	1.0	0.758	Phon/Phon_run-02/ContS36.wav	2.0	0	0.6409999999999999
72.7312	3.823	P_O	1.0	n/a	n/a	1.0	1.69	Phon/Phon_run-02/PC023.wav	1.0	1	1.44
76.5674	4.323	P_C	1.0	n/a	n/a	1.0	0.066	Phon/Phon_run-02/ContS24.wav	1.0	1	0.8160000000000001
80.9038	3.865	P_U	2.0	n/a	n/a	2.0	1.672	Phon/Phon_run-02/PM004.wav	2.0	1	1.422
84.7733	3.875	P_O	1.0	n/a	n/a	1.0	1.6469999999999998	Phon/Phon_run-02/PC007.wav	1.0	1	1.3969999999999998
88.6594	4.25	P_U	2.0	n/a	n/a	2.0	1.345	Phon/Phon_run-02/PM011.wav	2.0	1	1.095
92.9126	4.362	P_C	1.0	n/a	n/a	1.0	0.003	Phon/Phon_run-02/ContS30.wav	1.0	1	0.753
97.2825	3.875	P_O	1.0	n/a	n/a	2.0	1.577	Phon/Phon_run-02/PC030.wav	2.0	0	1.327
101.1687	3.3360000000000003	P_R	1.0	n/a	n/a	1.0	1.31	Phon/Phon_run-02/stereo_PR05.wav	1.0	1	1.06
104.5077	4.113	P_U	2.0	n/a	n/a	2.0	1.5859999999999999	Phon/Phon_run-02/stereo_PU01.wav	2.0	1	1.3359999999999999
108.6273	4.1739999999999995	P_U	2.0	n/a	n/a	2.0	1.4769999999999999	Phon/Phon_run-02/PM029.wav	2.0	1	1.2269999999999999
112.8137	3.4539999999999997	P_C	1.0	n/a	n/a	2.0	0.12300000000000001	Phon/Phon_run-02/ContS08.wav	2.0	0	0.873
116.2828	3.446	P_R	1.0	1.0	0.039	1.0	2.028	Phon/Phon_run-02/stereo_PR30.wav	1.0	1	1.778
119.7352	3.85	P_R	1.0	n/a	n/a	1.0	1.237	Phon/Phon_run-02/stereo_PR07.wav	1.0	1	0.9870000000000001
123.588	3.438	P_U	2.0	n/a	n/a	2.0	1.6969999999999998	Phon/Phon_run-02/stereo_PU02.wav	2.0	1	1.4469999999999998
127.0406	3.915	P_C	1.0	n/a	n/a	1.0	0.154	Phon/Phon_run-02/ContS20.wav	1.0	1	0.904
130.9601	3.487	P_U	2.0	n/a	n/a	2.0	1.236	Phon/Phon_run-02/PM021.wav	2.0	1	0.986
134.46200000000002	3.965	P_C	1.0	1.0	0.746	1.0	0.6679999999999999	Phon/Phon_run-02/ContS26.wav	1.0	1	0.746
138.4315	3.792	P_R	1.0	n/a	n/a	1.0	1.599	Phon/Phon_run-02/stereo_PR31.wav	1.0	1	1.349
142.2343	4.135	P_O	1.0	n/a	n/a	1.0	1.2570000000000001	Phon/Phon_run-02/PC024.wav	1.0	1	1.0070000000000001
146.3717	3.875	P_U	2.0	n/a	n/a	2.0	1.42	Phon/Phon_run-02/PM010.wav	2.0	1	1.17
150.2579	3.875	P_O	1.0	n/a	n/a	1.0	1.518	Phon/Phon_run-02/PC015.wav	1.0	1	1.268
154.144	4.245	P_C	1.0	n/a	n/a	1.0	0.273	Phon/Phon_run-02/ContS14.wav	1.0	1	1.0230000000000001
158.3971	3.854	P_R	1.0	n/a	n/a	1.0	1.253	Phon/Phon_run-02/stereo_PR14.wav	1.0	1	1.003
162.2662	4.239	P_O	1.0	n/a	n/a	1.0	1.19	Phon/Phon_run-02/PC008.wav	1.0	1	0.94
166.5192	4.25	P_U	2.0	n/a	n/a	2.0	2.021	Phon/Phon_run-02/stereo_PU11.wav	2.0	1	1.771
170.7726	3.523	P_C	1.0	1.0	0.737	1.0	0.5539999999999999	Phon/Phon_run-02/ContS18.wav	1.0	1	0.737
174.3085	3.429	P_O	1.0	n/a	n/a	1.0	1.459	Phon/Phon_run-02/PC006.wav	1.0	1	1.209
177.7443	4.18	P_R	1.0	n/a	n/a	2.0	1.8219999999999998	Phon/Phon_run-02/stereo_PR32.wav	2.0	0	1.5719999999999998
181.9307	4.104	P_R	1.0	n/a	n/a	1.0	1.4480000000000002	Phon/Phon_run-02/stereo_PR24.wav	1.0	1	1.1980000000000002
