onset	duration	trial_type	correct	window1_response	window1_RT	window2_response	window2_RT	stim_file	calculated_response	calculated_accuracy	calculated_RT
1.0924	3.5	P_R	1.0	n/a	n/a	n/a	n/a	Phon/Phon_run-02/stereo_PR20.wav	n/a	0	n/a
4.595	4.235	P_O	1.0	n/a	n/a	2.0	1.24	Phon/Phon_run-02/PC034.wav	2.0	0	0.99
8.8325	3.375	P_R	1.0	n/a	n/a	1.0	1.244	Phon/Phon_run-02/stereo_PR13.wav	1.0	1	0.994
12.2183	3.474	P_C	1.0	n/a	n/a	1.0	0.105	Phon/Phon_run-02/ContS12.wav	1.0	1	0.855
15.7041	3.875	P_U	2.0	n/a	n/a	1.0	1.361	Phon/Phon_run-02/PM025.wav	1.0	0	1.111
19.5903	3.726	P_R	1.0	n/a	n/a	1.0	1.17	Phon/Phon_run-02/stereo_PR22.wav	1.0	1	0.9199999999999999
23.3263	3.451	P_O	1.0	n/a	n/a	1.0	1.386	Phon/Phon_run-02/PC014.wav	1.0	1	1.136
26.7799	3.779	P_C	1.0	n/a	n/a	2.0	0.168	Phon/Phon_run-02/ContS02.wav	2.0	0	0.918
30.566	3.821	P_U	2.0	n/a	n/a	1.0	1.358	Phon/Phon_run-02/stereo_PU18.wav	1.0	0	1.108
34.402	3.49	P_U	2.0	n/a	n/a	2.0	1.298	Phon/Phon_run-02/stereo_PU12.wav	2.0	1	1.048
37.9046	4.38	P_C	1.0	n/a	n/a	1.0	0.11	Phon/Phon_run-02/ContS32.wav	1.0	1	0.86
42.291000000000004	4.0969999999999995	P_R	1.0	n/a	n/a	1.0	1.156	Phon/Phon_run-02/stereo_PR16.wav	1.0	1	0.9059999999999999
46.394	3.5	P_O	1.0	n/a	n/a	1.0	1.183	Phon/Phon_run-02/PC022.wav	1.0	1	0.933
49.8966	4.0760000000000005	P_R	1.0	n/a	n/a	1.0	1.016	Phon/Phon_run-02/stereo_PR08.wav	1.0	1	0.766
53.983000000000004	3.5	P_O	1.0	n/a	n/a	1.0	1.107	Phon/Phon_run-02/PC028.wav	1.0	1	0.857
57.4856	3.5	P_U	2.0	n/a	n/a	2.0	1.103	Phon/Phon_run-02/stereo_PU27.wav	2.0	1	0.853
60.9881	3.819	P_C	1.0	n/a	n/a	1.0	0.304	Phon/Phon_run-02/ContS06.wav	1.0	1	1.054
64.8086	4.25	P_O	1.0	n/a	n/a	1.0	1.216	Phon/Phon_run-02/PC031.wav	1.0	1	0.966
69.062	3.662	P_C	1.0	n/a	n/a	1.0	0.01	Phon/Phon_run-02/ContS36.wav	1.0	1	0.76
72.7312	3.823	P_O	1.0	n/a	n/a	1.0	1.117	Phon/Phon_run-02/PC023.wav	1.0	1	0.867
76.5674	4.323	P_C	1.0	n/a	n/a	1.0	0.644	Phon/Phon_run-02/ContS24.wav	1.0	1	1.3940000000000001
80.9038	3.865	P_U	2.0	n/a	n/a	1.0	1.4580000000000002	Phon/Phon_run-02/PM004.wav	1.0	0	1.2080000000000002
84.7733	3.875	P_O	1.0	n/a	n/a	1.0	1.271	Phon/Phon_run-02/PC007.wav	1.0	1	1.021
88.6594	4.25	P_U	2.0	n/a	n/a	2.0	1.311	Phon/Phon_run-02/PM011.wav	2.0	1	1.061
92.9126	4.362	P_C	1.0	n/a	n/a	1.0	0.067	Phon/Phon_run-02/ContS30.wav	1.0	1	0.817
97.2825	3.875	P_O	1.0	n/a	n/a	1.0	1.305	Phon/Phon_run-02/PC030.wav	1.0	1	1.055
101.1687	3.3360000000000003	P_R	1.0	n/a	n/a	1.0	1.105	Phon/Phon_run-02/stereo_PR05.wav	1.0	1	0.855
104.5077	4.113	P_U	2.0	n/a	n/a	1.0	1.193	Phon/Phon_run-02/stereo_PU01.wav	1.0	0	0.9430000000000001
108.6273	4.1739999999999995	P_U	2.0	n/a	n/a	2.0	1.5290000000000001	Phon/Phon_run-02/PM029.wav	2.0	1	1.279
112.8137	3.4539999999999997	P_C	1.0	n/a	n/a	1.0	0.254	Phon/Phon_run-02/ContS08.wav	1.0	1	1.004
116.2828	3.446	P_R	1.0	n/a	n/a	1.0	1.409	Phon/Phon_run-02/stereo_PR30.wav	1.0	1	1.159
119.7352	3.85	P_R	1.0	n/a	n/a	2.0	1.449	Phon/Phon_run-02/stereo_PR07.wav	2.0	0	1.199
123.588	3.438	P_U	2.0	n/a	n/a	1.0	1.177	Phon/Phon_run-02/stereo_PU02.wav	1.0	0	0.927
127.0406	3.915	P_C	1.0	n/a	n/a	1.0	0.971	Phon/Phon_run-02/ContS20.wav	1.0	1	1.721
130.9601	3.487	P_U	2.0	n/a	n/a	1.0	1.796	Phon/Phon_run-02/PM021.wav	1.0	0	1.546
134.46200000000002	3.965	P_C	1.0	1.0	0.441	n/a	n/a	Phon/Phon_run-02/ContS26.wav	1.0	1	0.441
138.4315	3.792	P_R	1.0	n/a	n/a	1.0	1.349	Phon/Phon_run-02/stereo_PR31.wav	1.0	1	1.099
142.2343	4.135	P_O	1.0	n/a	n/a	2.0	1.291	Phon/Phon_run-02/PC024.wav	2.0	0	1.041
146.3717	3.875	P_U	2.0	n/a	n/a	2.0	2.254	Phon/Phon_run-02/PM010.wav	2.0	1	2.004
150.2579	3.875	P_O	1.0	n/a	n/a	2.0	2.012	Phon/Phon_run-02/PC015.wav	2.0	0	1.762
154.144	4.245	P_C	1.0	n/a	n/a	1.0	2.211	Phon/Phon_run-02/ContS14.wav	1.0	1	2.961
158.3971	3.854	P_R	1.0	n/a	n/a	1.0	1.584	Phon/Phon_run-02/stereo_PR14.wav	1.0	1	1.334
162.2662	4.239	P_O	1.0	n/a	n/a	1.0	1.4169999999999998	Phon/Phon_run-02/PC008.wav	1.0	1	1.1669999999999998
166.5192	4.25	P_U	2.0	n/a	n/a	2.0	1.6980000000000002	Phon/Phon_run-02/stereo_PU11.wav	2.0	1	1.4480000000000002
170.7726	3.523	P_C	1.0	n/a	n/a	1.0	2.0340000000000003	Phon/Phon_run-02/ContS18.wav	1.0	1	2.7840000000000003
174.3085	3.429	P_O	1.0	n/a	n/a	1.0	1.625	Phon/Phon_run-02/PC006.wav	1.0	1	1.375
177.7443	4.18	P_R	1.0	n/a	n/a	1.0	1.463	Phon/Phon_run-02/stereo_PR32.wav	1.0	1	1.213
181.9307	4.104	P_R	1.0	n/a	n/a	1.0	1.224	Phon/Phon_run-02/stereo_PR24.wav	1.0	1	0.974
