onset	duration	trial_type	correct	window1_response	window1_RT	window2_response	window2_RT	stim_file	calculated_response	calculated_accuracy	calculated_RT
1.085	6.895	G_F	2.0	n/a	n/a	2.0	4.2669999999999995	Gram/Gram_run-01/stereo_2MF57U2.wav	2.0	1	5.017
7.99	7.175	G_F	2.0	n/a	n/a	2.0	2.1790000000000003	Gram/Gram_run-01/stereo_1MF15U3.wav	2.0	1	2.9290000000000003
15.179	6.5070000000000014	G_G	1.0	n/a	n/a	1.0	4.3660000000000005	Gram/Gram_run-01/stereo_1MF11G2.wav	1.0	1	3.1860000000000004
21.7	6.505	G_C	1.0	1.0	0.512	n/a	n/a	Gram/Gram_run-01/CoM09d.wav	1.0	1	0.512
28.205	6.9479999999999995	G_F	2.0	n/a	n/a	2.0	3.458	Gram/Gram_run-01/stereo_2MF68U4.wav	2.0	1	2.732
35.16	5.541	G_P	2.0	n/a	n/a	n/a	n/a	Gram/Gram_run-01/stereo_1MP37U3.wav	n/a	0	n/a
40.715	5.9479999999999995	G_G	1.0	n/a	n/a	n/a	n/a	Gram/Gram_run-01/stereo_2MF50G1.wav	n/a	0	n/a
46.669	6.013	G_F	2.0	n/a	n/a	2.0	3.5269999999999997	Gram/Gram_run-01/stereo_1MF05U1.wav	2.0	1	2.9250000000000003
52.69	7.87	G_C	1.0	n/a	n/a	1.0	2.6439999999999997	Gram/Gram_run-01/CoM01l.wav	1.0	1	3.394
60.563	6.4979999999999976	G_G	1.0	n/a	n/a	1.0	5.001	Gram/Gram_run-01/stereo_1MF23G4.wav	1.0	1	2.8200000000000003
67.068	6.184	G_F	2.0	n/a	n/a	1.0	3.758	Gram/Gram_run-01/stereo_2MF55U2.wav	1.0	0	4.508
73.256	6.83	G_C	1.0	n/a	n/a	1.0	3.053	Gram/Gram_run-01/CoM10l.wav	1.0	1	3.803
80.095	7.505	G_G	1.0	n/a	n/a	1.0	4.393	Gram/Gram_run-01/stereo_2MP96G4.wav	1.0	1	1.9980000000000002
87.6	7.1370000000000005	G_G	1.0	n/a	n/a	2.0	5.4910000000000005	Gram/Gram_run-01/stereo_1MP47G4.wav	2.0	0	3.024000000000001
94.73899999999999	6.694	G_F	2.0	n/a	n/a	n/a	n/a	Gram/Gram_run-01/stereo_2MF61U3.wav	n/a	0	n/a
101.444	5.39	G_C	1.0	n/a	n/a	1.0	2.7569999999999997	Gram/Gram_run-01/CoM01d.wav	1.0	1	3.507
106.848	6.5760000000000005	G_G	1.0	n/a	n/a	2.0	3.898	Gram/Gram_run-01/stereo_1MP35G2.wav	2.0	0	2.894
113.436	5.3389999999999995	G_F	2.0	n/a	n/a	n/a	n/a	Gram/Gram_run-01/stereo_2MF69U4.wav	n/a	0	n/a
118.791	7.94	G_C	1.0	n/a	n/a	1.0	3.596	Gram/Gram_run-01/CoM08l.wav	1.0	1	4.346
126.74700000000001	6.006	G_P	2.0	n/a	n/a	2.0	4.502	Gram/Gram_run-01/stereo_1MP26U1.wav	2.0	1	2.526
132.768	8.422	G_F	2.0	n/a	n/a	2.0	3.286	Gram/Gram_run-01/stereo_1MF06U1.wav	2.0	1	2.691
141.191	7.885	G_P	2.0	n/a	n/a	2.0	4.35	Gram/Gram_run-01/stereo_2MP81U2.wav	2.0	1	3.4649999999999994
149.08	6.127000000000002	G_G	1.0	n/a	n/a	n/a	n/a	Gram/Gram_run-01/stereo_2MP83G2.wav	n/a	0	n/a
155.218	5.765	G_C	1.0	n/a	n/a	1.0	2.6719999999999997	Gram/Gram_run-01/CoM02b.wav	1.0	1	3.422
160.989	6.706	G_P	2.0	n/a	n/a	n/a	n/a	Gram/Gram_run-01/stereo_2MP93U4.wav	n/a	0	n/a
167.71099999999996	6.61	G_P	2.0	n/a	n/a	2.0	4.282	Gram/Gram_run-01/stereo_1MP28U1.wav	2.0	1	2.1670000000000007
174.333	6.63	G_C	1.0	n/a	n/a	1.0	0.541	Gram/Gram_run-01/CoM04b.wav	1.0	1	1.291
180.97099999999998	5.665	G_P	2.0	n/a	n/a	n/a	n/a	Gram/Gram_run-01/stereo_1MP27U1.wav	n/a	0	n/a
186.642	7.55	G_G	1.0	n/a	n/a	1.0	4.748	Gram/Gram_run-01/stereo_2MP77G1.wav	1.0	1	2.649
194.19799999999998	6.51	G_C	1.0	n/a	n/a	1.0	1.5630000000000002	Gram/Gram_run-01/CoM03e.wav	1.0	1	2.313
200.71900000000002	6.98	G_P	2.0	n/a	n/a	2.0	5.402	Gram/Gram_run-01/stereo_2MP92U4.wav	2.0	1	3.053
207.708	7.047999999999999	G_G	1.0	n/a	n/a	2.0	3.844	Gram/Gram_run-01/stereo_1MF12G2.wav	2.0	0	2.8099999999999996
214.763	5.574	G_F	2.0	n/a	n/a	n/a	n/a	Gram/Gram_run-01/stereo_1MF04U1.wav	n/a	0	n/a
220.351	5.67	G_C	1.0	1.0	0.22899999999999998	1.0	1.2209999999999999	Gram/Gram_run-01/CoM07d.wav	1.0	1	0.229
226.02200000000002	6.6160000000000005	G_P	2.0	n/a	n/a	2.0	3.862	Gram/Gram_run-01/stereo_1MP39U3.wav	2.0	1	2.858
232.644	5.695	G_P	2.0	n/a	n/a	2.0	3.7439999999999998	Gram/Gram_run-01/stereo_2MP82U2.wav	2.0	1	2.8230000000000004
238.34799999999998	6.627000000000002	G_F	2.0	n/a	n/a	2.0	4.681	Gram/Gram_run-01/stereo_1MF13U3.wav	2.0	1	5.431
244.986	7.145	G_C	1.0	n/a	n/a	1.0	1.659	Gram/Gram_run-01/CoM08e.wav	1.0	1	2.409
252.142	6.805	G_G	1.0	n/a	n/a	1.0	4.035	Gram/Gram_run-01/stereo_1MP41G3.wav	1.0	1	2.729
258.947	7.519	G_P	2.0	n/a	n/a	2.0	3.866	Gram/Gram_run-01/stereo_1MP38U3.wav	2.0	1	2.627
