onset	duration	trial_type	correct	window1_response	window1_RT	window2_response	window2_RT	stim_file	calculated_response	calculated_accuracy	calculated_RT
1.1	7.034	SP_W	1.0	n/a	n/a	1.0	3.878	Plaus/Plaus_run-01/stereo_PW85.wav	1.0	1	1.7309999999999999
8.139	5.641	SP_I	2.0	n/a	n/a	2.0	2.443	Plaus/Plaus_run-01/stereo_PI11.wav	2.0	1	1.523
13.794	6.77	SP_C	1.0	1.0	0.728	n/a	n/a	Plaus/Plaus_run-01/CoM08b.wav	1.0	1	0.728
20.565	7.327000000000001	SP_W	1.0	n/a	n/a	1.0	3.46	Plaus/Plaus_run-01/stereo_PW72.wav	1.0	1	1.48
27.904	6.145	SP_C	1.0	n/a	n/a	1.0	1.158	Plaus/Plaus_run-01/CoM05d.wav	1.0	1	1.908
34.059	5.181	SP_I	2.0	n/a	n/a	2.0	3.33	Plaus/Plaus_run-01/stereo_PI65.wav	2.0	1	2.388
39.246	5.092	SP_S	1.0	n/a	n/a	2.0	3.179	Plaus/Plaus_run-01/stereo_PC13.wav	2.0	0	2.1159999999999997
44.35	7.355	SP_C	1.0	1.0	0.4	n/a	n/a	Plaus/Plaus_run-01/CoM06l.wav	1.0	1	0.4
51.706	7.47	SP_I	2.0	n/a	n/a	2.0	4.317	Plaus/Plaus_run-01/stereo_PI90.wav	2.0	1	2.1460000000000004
59.178	7.399	SP_S	1.0	n/a	n/a	2.0	3.94	Plaus/Plaus_run-01/stereo_PC35.wav	2.0	0	1.673
66.584	5.685	SP_S	1.0	n/a	n/a	2.0	4.085	Plaus/Plaus_run-01/stereo_PC47.wav	2.0	0	3.0759999999999996
72.27199999999998	5.669	SP_W	1.0	n/a	n/a	2.0	2.948	Plaus/Plaus_run-01/stereo_PW19.wav	2.0	0	1.942
77.943	7.9	SP_C	1.0	1.0	0.741	n/a	n/a	Plaus/Plaus_run-01/CoM03l.wav	1.0	1	0.741
85.84899999999998	5.145	SP_I	2.0	n/a	n/a	2.0	2.838	Plaus/Plaus_run-01/stereo_PI09.wav	2.0	1	1.8300000000000003
91.003	6.9170000000000025	SP_W	1.0	n/a	n/a	2.0	4.896	Plaus/Plaus_run-01/stereo_PW30.wav	2.0	0	2.776
97.925	5.738	SP_S	1.0	n/a	n/a	1.0	4.428	Plaus/Plaus_run-01/stereo_PC14.wav	1.0	1	3.2569999999999997
103.663	6.276	SP_W	1.0	n/a	n/a	1.0	2.886	Plaus/Plaus_run-01/stereo_PW50.wav	1.0	1	2.064
109.951	5.49	SP_C	1.0	n/a	n/a	1.0	1.006	Plaus/Plaus_run-01/CoM03d.wav	1.0	1	1.756
115.455	5.7	SP_I	2.0	n/a	n/a	2.0	3.866	Plaus/Plaus_run-01/stereo_PI67.wav	2.0	1	2.975
121.16	7.237	SP_S	1.0	n/a	n/a	1.0	4.817	Plaus/Plaus_run-01/stereo_PC68.wav	1.0	1	2.851
128.398	6.49	SP_C	1.0	1.0	0.626	n/a	n/a	Plaus/Plaus_run-01/CoM03b.wav	1.0	1	0.626
134.903	6.25	SP_W	1.0	n/a	n/a	2.0	3.219	Plaus/Plaus_run-01/stereo_PW61.wav	2.0	0	2.239
141.158	6.952999999999999	SP_I	2.0	n/a	n/a	2.0	3.7739999999999996	Plaus/Plaus_run-01/stereo_PI32.wav	2.0	1	1.609
148.114	7.085	SP_C	1.0	n/a	n/a	1.0	0.038	Plaus/Plaus_run-01/CoM02e.wav	1.0	1	0.788
155.202	6.3610000000000015	SP_S	1.0	n/a	n/a	1.0	3.611	Plaus/Plaus_run-01/stereo_PC24.wav	1.0	1	1.3530000000000002
161.57399999999996	5.1110000000000015	SP_W	1.0	n/a	n/a	2.0	2.64	Plaus/Plaus_run-01/stereo_PW53.wav	2.0	0	1.6260000000000003
166.695	6.2860000000000005	SP_I	2.0	n/a	n/a	1.0	5.118	Plaus/Plaus_run-01/stereo_PI42.wav	1.0	0	2.9220000000000006
172.983	6.577000000000001	SP_S	1.0	n/a	n/a	1.0	3.557	Plaus/Plaus_run-01/stereo_PC57.wav	1.0	1	2.362
179.571	5.273	SP_W	1.0	n/a	n/a	2.0	3.165	Plaus/Plaus_run-01/stereo_PW18.wav	2.0	0	1.998
184.859	5.77	SP_C	1.0	n/a	n/a	1.0	0.14	Plaus/Plaus_run-01/CoM09b.wav	1.0	1	0.89
190.63	6.731	SP_S	1.0	n/a	n/a	2.0	4.785	Plaus/Plaus_run-01/stereo_PC26.wav	2.0	0	2.685
197.368	7.212999999999999	SP_I	2.0	n/a	n/a	2.0	3.761	Plaus/Plaus_run-01/stereo_PI33.wav	2.0	1	1.778
204.59	5.181	SP_S	1.0	n/a	n/a	1.0	2.593	Plaus/Plaus_run-01/stereo_PC01.wav	1.0	1	1.6520000000000001
209.778	6.238	SP_S	1.0	n/a	n/a	1.0	3.176	Plaus/Plaus_run-01/stereo_PC36.wav	1.0	1	1.13
216.016	7.73	SP_C	1.0	n/a	n/a	1.0	0.337	Plaus/Plaus_run-01/CoM10e.wav	1.0	1	1.087
223.755	6.843	SP_I	2.0	n/a	n/a	n/a	n/a	Plaus/Plaus_run-01/stereo_PI45.wav	1.0	0	4.6850000000000005
230.611	6.101	SP_W	1.0	1.0	0.7190000000000001	n/a	n/a	Plaus/Plaus_run-01/stereo_PW28.wav	n/a	0	n/a
236.715	7.419	SP_W	1.0	n/a	n/a	1.0	4.548	Plaus/Plaus_run-01/stereo_PW86.wav	1.0	1	2.5120000000000005
244.138	6.54	SP_C	1.0	1.0	0.628	n/a	n/a	Plaus/Plaus_run-01/CoM05e.wav	1.0	1	0.628
250.693	6.247000000000001	SP_I	2.0	n/a	n/a	1.0	2.727	Plaus/Plaus_run-01/stereo_PI12.wav	1.0	0	1.8559999999999999
