onset	duration	trial_type	correct	window1_response	window1_RT	window2_response	window2_RT	stim_file	calculated_response	calculated_accuracy	calculated_RT
1.084	7.632999999999999	G_P	2.0	n/a	n/a	1.0	4.016	Gram/Gram_run-02/stereo_1MP45U4.wav	1.0	0	1.8849999999999998
8.722999999999999	7.315	G_F	2.0	n/a	n/a	2.0	4.7330000000000005	Gram/Gram_run-02/stereo_1MF20U4.wav	2.0	1	4.023
16.045	6.2829999999999995	G_P	2.0	n/a	n/a	1.0	3.9389999999999996	Gram/Gram_run-02/stereo_1MP34U2.wav	1.0	0	2.847
22.333	6.195	G_C	1.0	n/a	n/a	1.0	4.221	Gram/Gram_run-02/CoM06d.wav	1.0	1	4.971
28.538	6.221	G_G	1.0	n/a	n/a	2.0	4.441	Gram/Gram_run-02/stereo_1MF02G1.wav	2.0	0	2.401
34.759	5.801	G_F	2.0	n/a	n/a	1.0	4.52	Gram/Gram_run-02/stereo_2MF64U3.wav	1.0	0	5.27
40.564	6.78	G_C	1.0	n/a	n/a	1.0	4.636	Gram/Gram_run-02/CoM07l.wav	1.0	1	5.386
47.352	6.084	G_F	2.0	n/a	n/a	2.0	3.3819999999999997	Gram/Gram_run-02/stereo_2MF56U2.wav	2.0	1	4.132
53.44	7.5470000000000015	G_F	2.0	n/a	n/a	1.0	5.507000000000001	Gram/Gram_run-02/stereo_1MF21U4.wav	1.0	0	4.756000000000001
60.996	6.482	G_G	1.0	n/a	n/a	n/a	n/a	Gram/Gram_run-02/stereo_1MF24G4.wav	n/a	0	n/a
67.484	6.7810000000000015	G_P	2.0	n/a	n/a	1.0	5.393	Gram/Gram_run-02/stereo_2MP76U1.wav	1.0	0	3.1310000000000002
74.273	6.643	G_P	2.0	n/a	n/a	1.0	5.18	Gram/Gram_run-02/stereo_2MP80U2.wav	1.0	0	4.224
80.928	7.69	G_C	1.0	n/a	n/a	1.0	3.863	Gram/Gram_run-02/CoM06e.wav	1.0	1	4.6129999999999995
88.633	6.352	G_F	2.0	n/a	n/a	n/a	n/a	Gram/Gram_run-02/stereo_2MF63U3.wav	n/a	0	n/a
94.988	5.801	G_G	1.0	n/a	n/a	1.0	4.238	Gram/Gram_run-02/stereo_1MF18G3.wav	1.0	1	2.8550000000000004
100.793	7.1129999999999995	G_P	2.0	n/a	n/a	2.0	4.297	Gram/Gram_run-02/stereo_1MP44U4.wav	2.0	1	1.9399999999999995
107.915	6.78	G_C	1.0	n/a	n/a	1.0	2.315	Gram/Gram_run-02/CoM05b.wav	1.0	1	3.065
114.703	6.7360000000000015	G_F	2.0	n/a	n/a	2.0	2.88	Gram/Gram_run-02/stereo_2MF58U2.wav	2.0	1	3.63
121.442	6.0889999999999995	G_P	2.0	n/a	n/a	1.0	3.951	Gram/Gram_run-02/stereo_2MP87U3.wav	1.0	0	2.739
127.546	7.6370000000000005	G_P	2.0	n/a	n/a	1.0	3.571	Gram/Gram_run-02/stereo_2MP73U1.wav	1.0	0	1.544
135.185	7.305	G_C	1.0	n/a	n/a	1.0	2.658	Gram/Gram_run-02/CoM02l.wav	1.0	1	3.408
142.491	5.983	G_G	1.0	n/a	n/a	1.0	2.803	Gram/Gram_run-02/stereo_1MP42G3.wav	1.0	1	1.8809999999999998
148.47899999999996	5.36	G_P	2.0	n/a	n/a	2.0	3.272	Gram/Gram_run-02/stereo_1MP32U2.wav	2.0	1	2.2659999999999996
153.85	7.145	G_C	1.0	n/a	n/a	1.0	1.893	Gram/Gram_run-02/CoM09e.wav	1.0	1	2.643
161.005	6.28	G_F	2.0	n/a	n/a	1.0	5.096	Gram/Gram_run-02/stereo_1MF19U4.wav	1.0	0	4.41
167.293	6.63	G_C	1.0	n/a	n/a	1.0	3.096	Gram/Gram_run-02/CoM07b.wav	1.0	1	3.846
173.93099999999995	7.195	G_G	1.0	n/a	n/a	2.0	3.611	Gram/Gram_run-02/stereo_2MP89G3.wav	2.0	0	2.273
181.137	5.1739999999999995	G_F	2.0	n/a	n/a	2.0	2.948	Gram/Gram_run-02/stereo_1MF07U2.wav	2.0	1	3.698
186.324	6.944	G_P	2.0	n/a	n/a	1.0	4.393	Gram/Gram_run-02/stereo_2MP88U3.wav	1.0	0	3.3499999999999996
193.28	6.0889999999999995	G_G	1.0	n/a	n/a	n/a	n/a	Gram/Gram_run-02/stereo_2MF66G3.wav	n/a	0	n/a
199.384	6.5	G_C	1.0	n/a	n/a	1.0	0.652	Gram/Gram_run-02/CoM01e.wav	1.0	1	1.4020000000000001
205.889	6.43	G_P	2.0	n/a	n/a	1.0	4.147	Gram/Gram_run-02/stereo_1MP43U4.wav	1.0	0	1.8650000000000002
212.327	6.19	G_G	1.0	n/a	n/a	1.0	3.67	Gram/Gram_run-02/stereo_2MP84G2.wav	1.0	1	2.738
218.532	7.114	G_G	1.0	n/a	n/a	1.0	4.645	Gram/Gram_run-02/stereo_1MP29G1.wav	1.0	1	2.4569999999999994
225.654	6.731	G_F	2.0	n/a	n/a	2.0	4.574	Gram/Gram_run-02/stereo_2MF53U1.wav	2.0	1	4.003
232.392	6.015	G_C	1.0	n/a	n/a	1.0	2.1919999999999997	Gram/Gram_run-02/CoM02d.wav	1.0	1	2.942
238.414	7.17	G_G	1.0	n/a	n/a	1.0	5.257000000000001	Gram/Gram_run-02/stereo_2MF71G4.wav	1.0	1	3.008000000000001
245.586	5.33	G_C	1.0	n/a	n/a	1.0	0.7979999999999999	Gram/Gram_run-02/CoM06b.wav	1.0	1	1.548
250.923	6.9689999999999985	G_F	2.0	n/a	n/a	1.0	4.654	Gram/Gram_run-02/stereo_2MF54U1.wav	1.0	0	4.084
257.895	7.6	G_G	1.0	n/a	n/a	1.0	4.755	Gram/Gram_run-02/stereo_2MF49G1.wav	1.0	1	2.566
