onset	duration	trial_type	correct	window1_response	window1_RT	window2_response	window2_RT	stim_file	calculated_response	calculated_accuracy	calculated_RT
1.0918	4.2	S_U	2.0	n/a	n/a	1.0	2.424	Sem/Sem_run-01/stereo_1SU41A0.wav	1.0	0	2.174
5.2953	3.596	S_C	1.0	1.0	0.7140000000000001	n/a	n/a	Sem/Sem_run-01/ContS29.wav	1.0	1	0.7140000000000001
8.898	3.425	S_U	2.0	n/a	n/a	2.0	1.868	Sem/Sem_run-01/stereo_2SU87A0.wav	2.0	1	1.618
12.3338	3.933	S_H	1.0	n/a	n/a	1.0	1.261	Sem/Sem_run-01/stereo_1SH13A0.wav	1.0	1	1.011
16.2699	4.323	S_H	1.0	n/a	n/a	1.0	1.733	Sem/Sem_run-01/stereo_1SH05A0.wav	1.0	1	1.483
20.6064	4.073	S_C	1.0	n/a	n/a	1.0	0.043	Sem/Sem_run-01/ContS31.wav	1.0	1	0.793
24.6927	3.869	S_L	1.0	n/a	n/a	1.0	1.344	Sem/Sem_run-01/stereo_2SL63A0.wav	1.0	1	1.094
28.5634	3.75	S_L	1.0	n/a	n/a	1.0	1.002	Sem/Sem_run-01/stereo_1SL29A0.wav	1.0	1	0.752
32.3161	4.3660000000000005	S_U	2.0	n/a	n/a	2.0	1.334	Sem/Sem_run-01/stereo_2SU78A0.wav	2.0	1	1.084
36.6859	3.3	S_L	1.0	n/a	n/a	1.0	1.1159999999999999	Sem/Sem_run-01/stereo_1SL17A0.wav	1.0	1	0.8660000000000001
39.9885	3.884	S_C	1.0	1.0	0.7490000000000001	n/a	n/a	Sem/Sem_run-01/ContS05.wav	1.0	1	0.7490000000000001
43.8755	4.371	S_H	1.0	n/a	n/a	1.0	1.567	Sem/Sem_run-01/stereo_2SH58A0.wav	1.0	1	1.317
48.2606	4.329	S_L	1.0	n/a	n/a	1.0	1.238	Sem/Sem_run-01/stereo_2SL72A0.wav	1.0	1	0.988
52.5971	3.94	S_H	1.0	n/a	n/a	2.0	1.594	Sem/Sem_run-01/stereo_2SH57A0.wav	2.0	0	1.344
56.55	4.2	S_U	2.0	n/a	n/a	2.0	1.617	Sem/Sem_run-01/stereo_2SU83A0.wav	2.0	1	1.367
60.753	3.474	S_C	1.0	n/a	n/a	1.0	0.312	Sem/Sem_run-01/ContS11.wav	1.0	1	1.062
64.2389	4.271	S_L	1.0	n/a	n/a	2.0	1.899	Sem/Sem_run-01/stereo_1SL26A0.wav	2.0	0	1.649
68.5248	3.91	S_L	1.0	n/a	n/a	1.0	1.14	Sem/Sem_run-01/stereo_1SL25A0.wav	1.0	1	0.8899999999999999
72.4443	4.479	S_C	1.0	1.0	0.703	n/a	n/a	Sem/Sem_run-01/ContS25.wav	1.0	1	0.703
76.9309	3.378	S_U	2.0	n/a	n/a	2.0	1.406	Sem/Sem_run-01/stereo_2SU81A0.wav	2.0	1	1.156
80.3167	3.42	S_L	1.0	n/a	n/a	1.0	2.124	Sem/Sem_run-01/stereo_1SL27A0.wav	1.0	1	1.874
83.7479	4.3439999999999985	S_L	1.0	n/a	n/a	1.0	0.977	Sem/Sem_run-01/stereo_1SL30A0.wav	1.0	1	0.727
88.1008	3.909	S_L	1.0	n/a	n/a	1.0	2.399	Sem/Sem_run-01/stereo_2SL71A0.wav	1.0	1	2.149
92.0205	3.867	S_H	1.0	n/a	n/a	1.0	1.355	Sem/Sem_run-01/stereo_1SH04A0.wav	1.0	1	1.105
95.8902	3.828	S_U	2.0	n/a	n/a	2.0	0.857	Sem/Sem_run-01/stereo_1SU37A0.wav	2.0	1	0.607
99.7264	4.565	S_C	1.0	n/a	n/a	1.0	0.158	Sem/Sem_run-01/ContS35.wav	1.0	1	0.908
104.2964	3.3	S_U	2.0	n/a	n/a	1.0	1.367	Sem/Sem_run-01/stereo_1SU35A0.wav	1.0	0	1.117
107.5986	3.477	S_L	1.0	n/a	n/a	1.0	1.4680000000000002	Sem/Sem_run-01/stereo_2SL65A0.wav	1.0	1	1.2180000000000002
111.0845	3.83	S_H	1.0	n/a	n/a	2.0	1.197	Sem/Sem_run-01/stereo_1SH07A0.wav	2.0	0	0.9470000000000001
114.9207	4.3439999999999985	S_C	1.0	n/a	n/a	1.0	0.031	Sem/Sem_run-01/ContS07.wav	1.0	1	0.781
119.2738	3.5	S_H	1.0	n/a	n/a	1.0	1.06	Sem/Sem_run-01/stereo_1SH03A0.wav	1.0	1	0.81
122.7765	3.919	S_U	2.0	n/a	n/a	1.0	1.672	Sem/Sem_run-01/stereo_1SU45A0.wav	1.0	0	1.422
126.697	3.5	S_H	1.0	n/a	n/a	1.0	1.8219999999999998	Sem/Sem_run-01/stereo_1SH06A0.wav	1.0	1	1.572
130.1996	3.392	S_L	1.0	n/a	n/a	1.0	1.015	Sem/Sem_run-01/stereo_2SL62A0.wav	1.0	1	0.7649999999999999
133.6021	3.54	S_C	1.0	n/a	n/a	1.0	0.002	Sem/Sem_run-01/ContS19.wav	1.0	1	0.752
137.1547	4.4	S_H	1.0	n/a	n/a	1.0	1.288	Sem/Sem_run-01/stereo_1SH15A0.wav	1.0	1	1.038
141.5578	3.342	S_H	1.0	n/a	n/a	n/a	n/a	Sem/Sem_run-01/stereo_1SH11A0.wav	n/a	0	n/a
144.9103	3.385	S_U	2.0	n/a	n/a	1.0	1.183	Sem/Sem_run-01/stereo_1SU44A0.wav	1.0	0	0.933
148.2972	3.4160000000000004	S_H	1.0	n/a	n/a	2.0	1.679	Sem/Sem_run-01/stereo_2SH56A0.wav	2.0	0	1.429
151.7164	3.849	S_U	2.0	n/a	n/a	1.0	1.959	Sem/Sem_run-01/stereo_2SU82A0.wav	1.0	0	1.709
155.5691	3.934	S_C	1.0	1.0	0.665	n/a	n/a	Sem/Sem_run-01/ContS13.wav	1.0	1	0.665
159.506	4.309	S_L	1.0	n/a	n/a	1.0	1.1640000000000001	Sem/Sem_run-01/stereo_2SL64A0.wav	1.0	1	0.9139999999999999
163.8257	4.413	S_C	1.0	1.0	0.649	n/a	n/a	Sem/Sem_run-01/ContS17.wav	1.0	1	0.649
168.2456	4.2	S_U	2.0	n/a	n/a	1.0	1.357	Sem/Sem_run-01/stereo_2SU90A0.wav	1.0	0	1.107
172.4489	3.846	S_U	2.0	n/a	n/a	2.0	1.341	Sem/Sem_run-01/stereo_2SU88A0.wav	2.0	1	1.091
176.3017	3.3939999999999997	S_C	1.0	1.0	0.7120000000000001	n/a	n/a	Sem/Sem_run-01/ContS01.wav	1.0	1	0.7120000000000001
179.7041	4.013	S_C	1.0	1.0	0.716	n/a	n/a	Sem/Sem_run-01/ContS23.wav	1.0	1	0.716
183.7237	4.227	S_H	1.0	n/a	n/a	1.0	1.4040000000000001	Sem/Sem_run-01/stereo_1SH08A0.wav	1.0	1	1.154
