onset	duration	trial_type	correct	window1_response	window1_RT	window2_response	window2_RT	stim_file	calculated_response	calculated_accuracy	calculated_RT
1.101	3.5	P_R	1.0	n/a	n/a	1.0	1.495	Phon/Phon_run-02/stereo_PR20.wav	1.0	1	1.245
4.604	4.235	P_O	1.0	n/a	n/a	1.0	1.391	Phon/Phon_run-02/PC034.wav	1.0	1	1.141
8.841000000000003	3.375	P_R	1.0	n/a	n/a	1.0	1.2930000000000001	Phon/Phon_run-02/stereo_PR13.wav	1.0	1	1.0430000000000001
12.225999999999999	3.474	P_C	1.0	n/a	n/a	1.0	0.07400000000000001	Phon/Phon_run-02/ContS12.wav	1.0	1	0.8240000000000001
15.712	3.875	P_U	2.0	n/a	n/a	2.0	1.536	Phon/Phon_run-02/PM025.wav	2.0	1	1.286
19.599	3.726	P_R	1.0	n/a	n/a	1.0	1.189	Phon/Phon_run-02/stereo_PR22.wav	1.0	1	0.9390000000000001
23.335	3.451	P_O	1.0	n/a	n/a	1.0	1.071	Phon/Phon_run-02/PC014.wav	1.0	1	0.821
26.788	3.779	P_C	1.0	1.0	0.67	1.0	0.415	Phon/Phon_run-02/ContS02.wav	1.0	1	0.67
30.574	3.821	P_U	2.0	n/a	n/a	1.0	1.621	Phon/Phon_run-02/stereo_PU18.wav	1.0	0	1.371
34.41	3.49	P_U	2.0	n/a	n/a	1.0	1.4180000000000001	Phon/Phon_run-02/stereo_PU12.wav	1.0	0	1.1680000000000001
37.913000000000004	4.38	P_C	1.0	1.0	0.611	1.0	0.41	Phon/Phon_run-02/ContS32.wav	1.0	1	0.611
42.3	4.0969999999999995	P_R	1.0	n/a	n/a	1.0	2.137	Phon/Phon_run-02/stereo_PR16.wav	1.0	1	1.887
46.403	3.5	P_O	1.0	n/a	n/a	2.0	1.702	Phon/Phon_run-02/PC022.wav	2.0	0	1.452
49.90600000000001	4.0760000000000005	P_R	1.0	n/a	n/a	1.0	1.126	Phon/Phon_run-02/stereo_PR08.wav	1.0	1	0.8759999999999999
53.992	3.5	P_O	1.0	n/a	n/a	1.0	1.205	Phon/Phon_run-02/PC028.wav	1.0	1	0.9550000000000001
57.495	3.5	P_U	2.0	n/a	n/a	1.0	1.344	Phon/Phon_run-02/stereo_PU27.wav	1.0	0	1.094
60.997	3.819	P_C	1.0	1.0	0.669	1.0	0.32799999999999996	Phon/Phon_run-02/ContS06.wav	1.0	1	0.669
64.817	4.25	P_O	1.0	n/a	n/a	1.0	1.973	Phon/Phon_run-02/PC031.wav	1.0	1	1.723
69.07	3.662	P_C	1.0	n/a	n/a	1.0	1.035	Phon/Phon_run-02/ContS36.wav	1.0	1	1.785
72.74	3.823	P_O	1.0	n/a	n/a	1.0	1.663	Phon/Phon_run-02/PC023.wav	1.0	1	1.413
76.57600000000002	4.323	P_C	1.0	1.0	0.53	1.0	0.177	Phon/Phon_run-02/ContS24.wav	1.0	1	0.53
80.913	3.865	P_U	2.0	n/a	n/a	1.0	1.825	Phon/Phon_run-02/PM004.wav	1.0	0	1.575
84.78200000000002	3.875	P_O	1.0	n/a	n/a	1.0	1.3969999999999998	Phon/Phon_run-02/PC007.wav	1.0	1	1.1469999999999998
88.669	4.25	P_U	2.0	n/a	n/a	1.0	1.351	Phon/Phon_run-02/PM011.wav	1.0	0	1.101
92.92200000000001	4.362	P_C	1.0	1.0	0.588	1.0	0.301	Phon/Phon_run-02/ContS30.wav	1.0	1	0.588
97.292	3.875	P_O	1.0	n/a	n/a	1.0	1.355	Phon/Phon_run-02/PC030.wav	1.0	1	1.105
101.178	3.3360000000000003	P_R	1.0	n/a	n/a	2.0	1.204	Phon/Phon_run-02/stereo_PR05.wav	2.0	0	0.954
104.514	4.113	P_U	2.0	n/a	n/a	1.0	1.307	Phon/Phon_run-02/stereo_PU01.wav	1.0	0	1.057
108.634	4.1739999999999995	P_U	2.0	n/a	n/a	2.0	1.26	Phon/Phon_run-02/PM029.wav	2.0	1	1.01
112.821	3.4539999999999997	P_C	1.0	1.0	0.655	1.0	0.586	Phon/Phon_run-02/ContS08.wav	1.0	1	0.655
116.29	3.446	P_R	1.0	n/a	n/a	1.0	1.3769999999999998	Phon/Phon_run-02/stereo_PR30.wav	1.0	1	1.1269999999999998
119.743	3.85	P_R	1.0	n/a	n/a	1.0	1.203	Phon/Phon_run-02/stereo_PR07.wav	1.0	1	0.9530000000000001
123.596	3.438	P_U	2.0	n/a	n/a	1.0	1.228	Phon/Phon_run-02/stereo_PU02.wav	1.0	0	0.978
127.04799999999999	3.915	P_C	1.0	1.0	0.573	1.0	0.46	Phon/Phon_run-02/ContS20.wav	1.0	1	0.573
130.968	3.487	P_U	2.0	n/a	n/a	1.0	1.3030000000000002	Phon/Phon_run-02/PM021.wav	1.0	0	1.0530000000000002
134.471	3.965	P_C	1.0	1.0	0.556	1.0	0.483	Phon/Phon_run-02/ContS26.wav	1.0	1	0.556
138.44	3.792	P_R	1.0	n/a	n/a	2.0	1.022	Phon/Phon_run-02/stereo_PR31.wav	2.0	0	0.772
142.243	4.135	P_O	1.0	n/a	n/a	1.0	1.218	Phon/Phon_run-02/PC024.wav	1.0	1	0.968
146.38	3.875	P_U	2.0	n/a	n/a	1.0	1.462	Phon/Phon_run-02/PM010.wav	1.0	0	1.212
150.266	3.875	P_O	1.0	n/a	n/a	1.0	1.2209999999999999	Phon/Phon_run-02/PC015.wav	1.0	1	0.9709999999999999
154.15200000000004	4.245	P_C	1.0	1.0	0.546	1.0	0.547	Phon/Phon_run-02/ContS14.wav	1.0	1	0.546
158.406	3.854	P_R	1.0	n/a	n/a	1.0	1.829	Phon/Phon_run-02/stereo_PR14.wav	1.0	1	1.579
162.275	4.239	P_O	1.0	n/a	n/a	1.0	1.597	Phon/Phon_run-02/PC008.wav	1.0	1	1.347
166.52900000000002	4.25	P_U	2.0	n/a	n/a	1.0	1.268	Phon/Phon_run-02/stereo_PU11.wav	1.0	0	1.018
170.782	3.523	P_C	1.0	1.0	0.499	1.0	0.44	Phon/Phon_run-02/ContS18.wav	1.0	1	0.499
174.31799999999996	3.429	P_O	1.0	n/a	n/a	1.0	1.19	Phon/Phon_run-02/PC006.wav	1.0	1	0.94
177.75400000000005	4.18	P_R	1.0	n/a	n/a	1.0	1.2570000000000001	Phon/Phon_run-02/stereo_PR32.wav	1.0	1	1.0070000000000001
181.94099999999997	4.104	P_R	1.0	n/a	n/a	1.0	1.177	Phon/Phon_run-02/stereo_PR24.wav	1.0	1	0.927
