onset	duration	trial_type	correct	window1_response	window1_RT	window2_response	window2_RT	stim_file	calculated_response	calculated_accuracy	calculated_RT
1.0937	6.343	SP_S	1.0	n/a	n/a	1.0	2.8369999999999997	Plaus/Plaus_run-02/stereo_PC37.wav	1.0	1	0.6759999999999997
7.4482	6.345	SP_W	1.0	n/a	n/a	1.0	3.3169999999999997	Plaus/Plaus_run-02/stereo_PW74.wav	1.0	1	1.3480000000000003
13.8029	6.095	SP_C	1.0	n/a	n/a	1.0	3.0660000000000003	Plaus/Plaus_run-02/CoM10d.wav	1.0	1	3.816
19.9073	6.401	SP_I	2.0	n/a	n/a	1.0	1.999	Plaus/Plaus_run-02/stereo_PI56.wav	1.0	0	1.1320000000000001
26.313000000000002	6.407	SP_W	1.0	n/a	n/a	1.0	3.008	Plaus/Plaus_run-02/stereo_PW39.wav	1.0	1	0.981
32.7344	6.8420000000000005	SP_I	2.0	n/a	n/a	2.0	3.738	Plaus/Plaus_run-02/stereo_PI44.wav	2.0	1	1.541
39.5893	7.7	SP_C	1.0	n/a	n/a	1.0	1.8530000000000002	Plaus/Plaus_run-02/CoM07e.wav	1.0	1	2.603
47.295	5.756	SP_S	1.0	n/a	n/a	1.0	1.9069999999999998	Plaus/Plaus_run-02/stereo_PC03.wav	1.0	1	0.9650000000000004
53.0655	7.372000000000001	SP_S	1.0	n/a	n/a	1.0	3.156	Plaus/Plaus_run-02/stereo_PC82.wav	1.0	1	1.101
60.4386	6.095	SP_C	1.0	n/a	n/a	1.0	1.042	Plaus/Plaus_run-02/CoM04d.wav	1.0	1	1.7919999999999998
66.5431	6.303	SP_I	2.0	n/a	n/a	2.0	2.995	Plaus/Plaus_run-02/stereo_PI23.wav	2.0	1	2.011
72.8488	5.655	SP_I	2.0	n/a	n/a	2.0	2.7239999999999998	Plaus/Plaus_run-02/stereo_PI22.wav	2.0	1	1.805
78.5141	6.85	SP_C	1.0	n/a	n/a	1.0	1.275	Plaus/Plaus_run-02/CoM08d.wav	1.0	1	2.025
85.3693	6.9179999999999975	SP_S	1.0	n/a	n/a	1.0	3.21	Plaus/Plaus_run-02/stereo_PC79.wav	1.0	1	0.9640000000000004
92.2921	5.233	SP_I	2.0	n/a	n/a	1.0	2.9530000000000003	Plaus/Plaus_run-02/stereo_PI21.wav	1.0	0	1.9130000000000005
97.5292	6.385	SP_S	1.0	n/a	n/a	1.0	2.9810000000000003	Plaus/Plaus_run-02/stereo_PC46.wav	1.0	1	2.019
103.9184	6.282	SP_W	1.0	n/a	n/a	2.0	2.5580000000000003	Plaus/Plaus_run-02/stereo_PW64.wav	2.0	0	1.4520000000000004
110.2063	7.69	SP_C	1.0	n/a	n/a	1.0	1.331	Plaus/Plaus_run-02/CoM04e.wav	1.0	1	2.081
117.9072	6.316	SP_I	2.0	n/a	n/a	2.0	3.97	Plaus/Plaus_run-02/stereo_PI34.wav	2.0	1	1.813
124.2283	5.47	SP_C	1.0	n/a	n/a	1.0	2.1430000000000002	Plaus/Plaus_run-02/CoM10b.wav	1.0	1	2.8930000000000002
129.7001	5.636	SP_I	2.0	n/a	n/a	2.0	3.509	Plaus/Plaus_run-02/stereo_PI55.wav	2.0	1	2.67
135.3387	7.461	SP_W	1.0	n/a	n/a	1.0	3.97	Plaus/Plaus_run-02/stereo_PW83.wav	1.0	1	1.9660000000000009
142.8107	5.48	SP_C	1.0	n/a	n/a	1.0	3.364	Plaus/Plaus_run-02/CoM01b.wav	1.0	1	4.114
148.298	6.2120000000000015	SP_W	1.0	n/a	n/a	1.0	2.53	Plaus/Plaus_run-02/stereo_PW08.wav	1.0	1	1.6689999999999998
154.5192	4.694	SP_W	1.0	n/a	n/a	1.0	2.478	Plaus/Plaus_run-02/stereo_PW07.wav	1.0	1	1.6030000000000002
159.2226	6.197	SP_I	2.0	n/a	n/a	2.0	3.5839999999999996	Plaus/Plaus_run-02/stereo_PI43.wav	2.0	1	1.5240000000000005
165.4272	6.1979999999999995	SP_S	1.0	n/a	n/a	1.0	2.185	Plaus/Plaus_run-02/stereo_PC59.wav	1.0	1	1.1840000000000002
171.6318	7.345	SP_C	1.0	n/a	n/a	1.0	1.976	Plaus/Plaus_run-02/CoM05l.wav	1.0	1	2.7260000000000004
178.9871	5.2429999999999986	SP_S	1.0	n/a	n/a	1.0	2.311	Plaus/Plaus_run-02/stereo_PC02.wav	1.0	1	1.432
184.2409	6.82	SP_C	1.0	n/a	n/a	1.0	1.642	Plaus/Plaus_run-02/CoM09l.wav	1.0	1	2.392
191.0636	7.183	SP_I	2.0	n/a	n/a	2.0	3.5610000000000004	Plaus/Plaus_run-02/stereo_PI78.wav	2.0	1	1.6430000000000002
198.2522	6.727	SP_W	1.0	n/a	n/a	1.0	3.864	Plaus/Plaus_run-02/stereo_PW40.wav	1.0	1	1.6309999999999998
204.9904	5.181	SP_S	1.0	n/a	n/a	1.0	3.1439999999999997	Plaus/Plaus_run-02/stereo_PC60.wav	1.0	1	1.854
210.1775	7.135	SP_W	1.0	n/a	n/a	1.0	3.3489999999999998	Plaus/Plaus_run-02/stereo_PW73.wav	1.0	1	1.4169999999999998
217.3172	6.76	SP_C	1.0	n/a	n/a	1.0	2.343	Plaus/Plaus_run-02/CoM04l.wav	1.0	1	3.093
224.0887	6.682	SP_I	2.0	n/a	n/a	1.0	3.188	Plaus/Plaus_run-02/stereo_PI75.wav	1.0	0	1.1920000000000002
230.7769	6.002999999999999	SP_W	1.0	n/a	n/a	2.0	3.4189999999999996	Plaus/Plaus_run-02/stereo_PW63.wav	2.0	0	2.272
236.7825	5.0760000000000005	SP_W	1.0	n/a	n/a	1.0	2.931	Plaus/Plaus_run-02/stereo_PW05.wav	1.0	1	2.153
241.8694	6.218	SP_S	1.0	n/a	n/a	1.0	3.5669999999999997	Plaus/Plaus_run-02/stereo_PC69.wav	1.0	1	1.3300000000000003
248.0918	6.569	SP_S	1.0	n/a	n/a	1.0	3.72	Plaus/Plaus_run-02/stereo_PC70.wav	1.0	1	1.8440000000000003
