onset	duration	trial_type	correct	window1_response	window1_RT	window2_response	window2_RT	stim_file	calculated_response	calculated_accuracy	calculated_RT
1.0918	4.2	S_U	2.0	n/a	n/a	1.0	0.929	Sem/Sem_run-01/stereo_1SU41A0.wav	1.0	0	0.679
5.2953	3.596	S_C	1.0	n/a	n/a	1.0	0.996	Sem/Sem_run-01/ContS29.wav	1.0	1	1.746
8.898	3.425	S_U	2.0	n/a	n/a	2.0	1.286	Sem/Sem_run-01/stereo_2SU87A0.wav	2.0	1	1.036
12.3338	3.933	S_H	1.0	n/a	n/a	1.0	1.218	Sem/Sem_run-01/stereo_1SH13A0.wav	1.0	1	0.968
16.2699	4.323	S_H	1.0	n/a	n/a	1.0	0.9840000000000001	Sem/Sem_run-01/stereo_1SH05A0.wav	1.0	1	0.7340000000000001
20.6064	4.073	S_C	1.0	n/a	n/a	1.0	1.578	Sem/Sem_run-01/ContS31.wav	1.0	1	2.3280000000000003
24.6927	3.869	S_L	1.0	n/a	n/a	1.0	1.1079999999999999	Sem/Sem_run-01/stereo_2SL63A0.wav	1.0	1	0.8579999999999999
28.5634	3.75	S_L	1.0	n/a	n/a	1.0	1.0290000000000001	Sem/Sem_run-01/stereo_1SL29A0.wav	1.0	1	0.7790000000000001
32.3161	4.3660000000000005	S_U	2.0	n/a	n/a	1.0	1.099	Sem/Sem_run-01/stereo_2SU78A0.wav	1.0	0	0.8490000000000001
36.6859	3.3	S_L	1.0	n/a	n/a	2.0	0.27399999999999997	Sem/Sem_run-01/stereo_1SL17A0.wav	2.0	0	0.02399999999999997
39.9885	3.884	S_C	1.0	n/a	n/a	1.0	0.9990000000000001	Sem/Sem_run-01/ContS05.wav	1.0	1	1.749
43.8755	4.371	S_H	1.0	n/a	n/a	1.0	0.861	Sem/Sem_run-01/stereo_2SH58A0.wav	1.0	1	0.611
48.2606	4.329	S_L	1.0	n/a	n/a	1.0	1.555	Sem/Sem_run-01/stereo_2SL72A0.wav	1.0	1	1.305
52.5971	3.94	S_H	1.0	n/a	n/a	1.0	1.3519999999999999	Sem/Sem_run-01/stereo_2SH57A0.wav	1.0	1	1.102
56.55	4.2	S_U	2.0	n/a	n/a	1.0	0.9309999999999999	Sem/Sem_run-01/stereo_2SU83A0.wav	1.0	0	0.6809999999999999
60.753	3.474	S_C	1.0	n/a	n/a	1.0	2.095	Sem/Sem_run-01/ContS11.wav	1.0	1	2.845
64.2389	4.271	S_L	1.0	n/a	n/a	1.0	1.219	Sem/Sem_run-01/stereo_1SL26A0.wav	1.0	1	0.9690000000000001
68.5248	3.91	S_L	1.0	n/a	n/a	1.0	1.5119999999999998	Sem/Sem_run-01/stereo_1SL25A0.wav	1.0	1	1.2619999999999998
72.4443	4.479	S_C	1.0	n/a	n/a	1.0	1.328	Sem/Sem_run-01/ContS25.wav	1.0	1	2.0780000000000003
76.9309	3.378	S_U	2.0	n/a	n/a	2.0	1.374	Sem/Sem_run-01/stereo_2SU81A0.wav	2.0	1	1.124
80.3167	3.42	S_L	1.0	n/a	n/a	1.0	1.5630000000000002	Sem/Sem_run-01/stereo_1SL27A0.wav	1.0	1	1.3130000000000002
83.7479	4.3439999999999985	S_L	1.0	n/a	n/a	1.0	1.469	Sem/Sem_run-01/stereo_1SL30A0.wav	1.0	1	1.219
88.1008	3.909	S_L	1.0	n/a	n/a	1.0	1.338	Sem/Sem_run-01/stereo_2SL71A0.wav	1.0	1	1.088
92.0205	3.867	S_H	1.0	n/a	n/a	1.0	1.5490000000000002	Sem/Sem_run-01/stereo_1SH04A0.wav	1.0	1	1.2990000000000002
95.8902	3.828	S_U	2.0	n/a	n/a	2.0	1.7519999999999998	Sem/Sem_run-01/stereo_1SU37A0.wav	2.0	1	1.5019999999999998
99.7264	4.565	S_C	1.0	2.0	0.569	1.0	1.774	Sem/Sem_run-01/ContS35.wav	2.0	0	0.569
104.2964	3.3	S_U	2.0	n/a	n/a	1.0	1.994	Sem/Sem_run-01/stereo_1SU35A0.wav	1.0	0	1.744
107.5986	3.477	S_L	1.0	n/a	n/a	2.0	1.4780000000000002	Sem/Sem_run-01/stereo_2SL65A0.wav	2.0	0	1.2280000000000002
111.0845	3.83	S_H	1.0	n/a	n/a	1.0	1.4969999999999999	Sem/Sem_run-01/stereo_1SH07A0.wav	1.0	1	1.247
114.9207	4.3439999999999985	S_C	1.0	n/a	n/a	1.0	2.1180000000000003	Sem/Sem_run-01/ContS07.wav	1.0	1	2.8680000000000003
119.2738	3.5	S_H	1.0	n/a	n/a	1.0	1.594	Sem/Sem_run-01/stereo_1SH03A0.wav	1.0	1	1.344
122.7765	3.919	S_U	2.0	n/a	n/a	2.0	1.392	Sem/Sem_run-01/stereo_1SU45A0.wav	2.0	1	1.142
126.697	3.5	S_H	1.0	n/a	n/a	2.0	1.899	Sem/Sem_run-01/stereo_1SH06A0.wav	2.0	0	1.649
130.1996	3.392	S_L	1.0	n/a	n/a	1.0	2.07	Sem/Sem_run-01/stereo_2SL62A0.wav	1.0	1	1.82
133.6021	3.54	S_C	1.0	n/a	n/a	1.0	0.9740000000000001	Sem/Sem_run-01/ContS19.wav	1.0	1	1.7240000000000002
137.1547	4.4	S_H	1.0	n/a	n/a	1.0	1.567	Sem/Sem_run-01/stereo_1SH15A0.wav	1.0	1	1.317
141.5578	3.342	S_H	1.0	n/a	n/a	1.0	1.088	Sem/Sem_run-01/stereo_1SH11A0.wav	1.0	1	0.8380000000000001
144.9103	3.385	S_U	2.0	n/a	n/a	1.0	1.2409999999999999	Sem/Sem_run-01/stereo_1SU44A0.wav	1.0	0	0.991
148.2972	3.4160000000000004	S_H	1.0	n/a	n/a	2.0	0.8959999999999999	Sem/Sem_run-01/stereo_2SH56A0.wav	2.0	0	0.6459999999999999
151.7164	3.849	S_U	2.0	n/a	n/a	1.0	0.9670000000000001	Sem/Sem_run-01/stereo_2SU82A0.wav	1.0	0	0.7170000000000001
155.5691	3.934	S_C	1.0	n/a	n/a	2.0	1.0759999999999998	Sem/Sem_run-01/ContS13.wav	2.0	0	1.8259999999999998
159.506	4.309	S_L	1.0	n/a	n/a	1.0	0.772	Sem/Sem_run-01/stereo_2SL64A0.wav	1.0	1	0.522
163.8257	4.413	S_C	1.0	n/a	n/a	1.0	0.609	Sem/Sem_run-01/ContS17.wav	1.0	1	1.359
168.2456	4.2	S_U	2.0	n/a	n/a	2.0	1.4409999999999998	Sem/Sem_run-01/stereo_2SU90A0.wav	2.0	1	1.1909999999999998
172.4489	3.846	S_U	2.0	n/a	n/a	1.0	1.117	Sem/Sem_run-01/stereo_2SU88A0.wav	1.0	0	0.867
176.3017	3.3939999999999997	S_C	1.0	n/a	n/a	1.0	0.759	Sem/Sem_run-01/ContS01.wav	1.0	1	1.509
179.7041	4.013	S_C	1.0	n/a	n/a	1.0	1.036	Sem/Sem_run-01/ContS23.wav	1.0	1	1.786
183.7237	4.227	S_H	1.0	n/a	n/a	1.0	1.099	Sem/Sem_run-01/stereo_1SH08A0.wav	1.0	1	0.8490000000000001
